acc_x, acc_y, angular_z, stamp, 
0.008954823017120361, -0.03977334499359131, -1.8301848427832521e-06, 1695997128.7076304, 
-0.009101152420043945, -0.011073589324951172, 8.114746929239474e-11, 1695997128.717889, 
-0.023489773273468018, -0.01437598466873169, -1.5385421728245324e-06, 1695997128.7275736, 
-0.01095569133758545, 0.014277815818786621, 1.3317756715959708e-10, 1695997128.7375383, 
0.01237797737121582, 0.001975119113922119, -1.4632236163757444e-06, 1695997128.7477212, 
0.006936848163604736, 0.007346749305725098, -1.498939959353935e-06, 1695997128.7576613, 
-0.012823164463043213, 0.007563769817352295, 1.705795872982273e-10, 1695997128.767553, 
0.012290596961975098, -0.004895269870758057, -1.175041248751783e-06, 1695997128.7802331, 
0.014041483402252197, 0.006020963191986084, 2.3211830432895256e-10, 1695997128.7875366, 
-0.00043845176696777344, 0.025645673274993896, 1.596521726513642e-10, 1695997128.807533, 
0.006693780422210693, -0.024621784687042236, -1.6119377983505387e-06, 1695997128.8167763, 
-0.007735729217529297, -0.028368711471557617, -1.3712155657277484e-06, 1695997128.8276422, 
0.00659555196762085, -0.003101825714111328, 1.8872229992849314e-10, 1695997128.837411, 
0.001171410083770752, -0.004772484302520752, -1.4677939362424051e-06, 1695997128.8475616, 
-0.0006668567657470703, -0.01191490888595581, 1.7114767155945175e-10, 1695997128.8599422, 
-0.01145857572555542, -0.004621982574462891, -2.0063590421436397e-06, 1695997128.867368, 
-0.007867634296417236, 0.009843707084655762, -1.4843253591231697e-06, 1695997128.8774054, 
-0.006069540977478027, 0.015246152877807617, 2.2571606996715327e-10, 1695997128.8874304, 
-0.004270672798156738, -0.0027466416358947754, -1.5016464201108162e-06, 1695997128.8973522, 
-0.01323556900024414, 0.0007538199424743652, 2.504075668557591e-10, 1695997128.9057755, 
-0.02214127779006958, 0.0009185671806335449, -1.284448888134535e-06, 1695997128.917375, 
-0.022057831287384033, 0.013456106185913086, 1.8515504540540188e-10, 1695997128.9273067, 
0.0013610124588012695, 0.004385769367218018, 1.4693763979582677e-10, 1695997128.93891, 
-0.0003644227981567383, 0.029454588890075684, 1.887879624547132e-10, 1695997128.9472675, 
0.012284576892852783, 0.011671841144561768, -1.4254354337247727e-06, 1695997128.9577203, 
-0.0002551078796386719, 0.011472821235656738, 1.2584456738943915e-10, 1695997128.9673111, 
0.012342989444732666, 0.004218697547912598, -1.4543822194084278e-06, 1695997128.977556, 
0.010543465614318848, -0.028238236904144287, 9.850234072119493e-11, 1695997128.98799, 
0.015929996967315674, -0.020913243293762207, -1.6154733164486261e-06, 1695997128.9972131, 
-0.002049744129180908, -0.015556037425994873, 1.0013939775836369e-10, 1695997129.0072153, 
-0.03255927562713623, 0.013072013854980469, -7.467853528548683e-07, 1695997129.0271642, 
-0.0432090163230896, 0.007875561714172363, 8.101083502263773e-11, 1695997129.037267, 
-0.028720617294311523, 0.013056516647338867, 6.90281132930385e-11, 1695997129.0472968, 
0.010914266109466553, 0.013083875179290771, -1.4969410944138857e-06, 1695997129.0572507, 
-0.017695903778076172, 0.020164430141448975, 4.004638376043071e-11, 1695997129.067982, 
-0.0032039880752563477, 0.009284377098083496, 3.243483837914205e-11, 1695997129.0772533, 
-0.00487440824508667, 0.00024706125259399414, 1.951548617221615e-11, 1695997129.087196, 
-0.011667191982269287, -0.021663427352905273, -3.537908487434567e-14, 1695997129.1476903, 
-0.02235102653503418, 0.023152530193328857, -1.1762118019457529e-12, 1695997129.1570466, 
-0.022212982177734375, 0.005279898643493652, -4.117036132410725e-12, 1695997129.1669867, 
-0.011186182498931885, 0.023091495037078857, 7.466988029810219e-07, 1695997129.1869426, 
-0.016431152820587158, 0.019385099411010742, 7.596211281575937e-12, 1695997129.1969316, 
0.010621905326843262, 0.013822555541992188, 1.9339781063045972e-11, 1695997129.2069714, 
0.04656714200973511, -0.007980287075042725, 1.540451473528616e-11, 1695997129.2168996, 
0.0017132759094238281, -0.02766185998916626, 2.865276453734507e-11, 1695997129.2279463, 
0.014294564723968506, -0.01154637336730957, 1.6705761312669527e-06, 1695997129.2368662, 
0.01607215404510498, -0.013393044471740723, 2.4438606232115292e-11, 1695997129.247124, 
-0.012636244297027588, -0.023931801319122314, 2.049067258433611e-11, 1695997129.2590537, 
-0.019798338413238525, -0.013223886489868164, 3.215940260088978e-11, 1695997129.2668567, 
-0.014381587505340576, -0.006215155124664307, 1.4869905890544517e-06, 1695997129.2768779, 
-0.016075611114501953, 0.02279585599899292, 2.236630255577696e-11, 1695997129.2868602, 
-0.04111063480377197, 0.006465435028076172, 2.890620533923372e-11, 1695997129.2957702, 
-0.0230025053024292, 0.024338066577911377, 3.1051712889339434e-11, 1695997129.308057, 
-0.013860225677490234, 0.026058971881866455, 1.7159201485959306e-06, 1695997129.3167415, 
-0.0011243820190429688, 0.0027417540550231934, 6.870488836442585e-11, 1695997129.3268697, 
0.01883089542388916, -0.022496342658996582, 7.47857606707359e-07, 1695997129.346799, 
0.03144556283950806, -0.006222665309906006, 1.6607634917332056e-06, 1695997129.3557718, 
0.03500264883041382, -0.026041686534881592, 6.791582406266533e-11, 1695997129.3667302, 
0.025946080684661865, -0.008173644542694092, 1.4914927829021832e-06, 1695997129.3767216, 
0.01868218183517456, 0.0044751763343811035, 5.6724677571863094e-11, 1695997129.3877168, 
0.0257452130317688, -0.027827799320220947, 4.172812169223593e-11, 1695997129.3966432, 
-0.012048661708831787, -0.027595221996307373, 1.4888591545509385e-06, 1695997129.4066517, 
-0.04082000255584717, 0.01909160614013672, 3.822549099408512e-11, 1695997129.4266348, 
-0.0263863205909729, 0.0335010290145874, 1.601441416814919e-11, 1695997129.4366581, 
-0.017333626747131348, 0.015430986881256104, 1.4907283298824105e-06, 1695997129.4466543, 
0.016841590404510498, -0.006145298480987549, 3.476734442079635e-11, 1695997129.4567485, 
0.016842961311340332, 0.016979694366455078, 1.3127424230519763e-06, 1695997129.4681, 
0.002504408359527588, 0.008076131343841553, 6.137048261764294e-11, 1695997129.476539, 
0.02942061424255371, -0.008092045783996582, 4.062821570527565e-11, 1695997129.4866335, 
0.007756650447845459, -0.020776033401489258, 7.431354364326646e-07, 1695997129.5066876, 
-0.01562410593032837, -0.026158392429351807, 3.340068830032624e-11, 1695997129.5165355, 
-0.013819336891174316, 0.017085909843444824, 3.832488430357333e-11, 1695997129.5265558, 
-0.010223567485809326, 0.002663731575012207, 1.5022926785862333e-06, 1695997129.536475, 
-0.03350704908370972, -0.01162111759185791, 2.158033258880536e-11, 1695997129.5483263, 
-0.011865317821502686, 0.006500244140625, 3.366077671012111e-11, 1695997129.5564387, 
-0.024346351623535156, 0.008191823959350586, 1.4944203314052034e-06, 1695997129.56641, 
0.006421506404876709, 0.013593077659606934, 2.6265602230032008e-11, 1695997129.57917, 
0.006421506404876709, 0.013593077659606934, 4.962823496021113e-11, 1695997129.5865347, 
0.013682425022125244, 0.006369352340698242, 1.5164048738129788e-06, 1695997129.5963616, 
0.028084874153137207, -0.006190657615661621, 3.788575468555038e-11, 1695997129.6066175, 
0.03525114059448242, -0.009729981422424316, 1.704101157192911e-06, 1695997129.6153622, 
0.0064664483070373535, -0.027790963649749756, 3.362578893273679e-11, 1695997129.628487, 
0.027953743934631348, -0.024079859256744385, 2.8341226508941318e-11, 1695997129.6363132, 
0.017077088356018066, -0.006125926971435547, 1.48849539987045e-06, 1695997129.6463244, 
-0.0063318610191345215, 0.008436739444732666, 1.4046108371164576e-11, 1695997129.6582105, 
-0.02075362205505371, -0.0024136900901794434, 1.059272955550269e-12, 1695997129.666279, 
-0.015365958213806152, 0.00851517915725708, 1.4900696233491628e-06, 1695997129.6762795, 
-0.04046523571014404, 0.015696048736572266, 1.0317452388971658e-12, 1695997129.6862073, 
-0.022437572479248047, 0.0066204071044921875, 1.7800455457535784e-12, 1695997129.6962225, 
-0.016941606998443604, 0.010296463966369629, 2.242673954282898e-12, 1695997129.7081106, 
-0.004284679889678955, 0.00837022066116333, 1.834186441197842e-06, 1695997129.716235, 
0.029874980449676514, 0.015411317348480225, -5.009813777267398e-12, 1695997129.7261875, 
0.04063892364501953, -0.0059716105461120605, 7.454023359999157e-07, 1695997129.7461793, 
0.00824040174484253, -0.007877111434936523, 9.736321128582334e-12, 1695997129.757306, 
0.01893603801727295, -0.020421981811523438, 1.6865335251725019e-06, 1695997129.7661417, 
0.015233039855957031, -0.007932543754577637, 7.292997729798897e-12, 1695997129.7761378, 
-0.0010131001472473145, 0.006528139114379883, 4.734924063637938e-12, 1695997129.7883415, 
-0.0208282470703125, -0.007867157459259033, 6.4416834648856685e-12, 1695997129.7961218, 
-0.02621668577194214, 0.004807651042938232, 4.75796566936754e-12, 1695997129.8060963, 
-0.029678046703338623, 0.029664933681488037, 7.370480482203439e-07, 1695997129.8263144, 
-0.013390004634857178, 0.018930256366729736, 2.2175653995328572e-11, 1695997129.836077, 
0.004661619663238525, 0.011616647243499756, 3.756894024286476e-11, 1695997129.8463778, 
0.011901557445526123, -0.002965092658996582, 1.5443343978066842e-06, 1695997129.8560271, 
0.013743042945861816, 0.005939066410064697, 4.974460906771263e-11, 1695997129.8677192, 
0.028107047080993652, -0.012120544910430908, 7.880740357445071e-11, 1695997129.8759477, 
0.017310142517089844, -0.013899505138397217, 7.577104084672093e-11, 1695997129.8859751, 
0.028022587299346924, -0.008518040180206299, 6.269937831076535e-11, 1695997129.895951, 
0.026118695735931396, -0.006804823875427246, 5.413229311149452e-11, 1695997129.9059436, 
-0.013470947742462158, -0.017595529556274414, 1.4850948700452002e-06, 1695997129.915978, 
-0.015320897102355957, -0.008673608303070068, 4.8795595402523003e-11, 1695997129.9259129, 
-0.01711350679397583, 0.004092812538146973, 4.4779534408529805e-11, 1695997129.93618, 
-0.03505074977874756, 0.0003935098648071289, 3.936340219045259e-11, 1695997129.9482195, 
-0.027789056301116943, 0.02373737096786499, 1.944409603935627e-06, 1695997129.9558835, 
-0.009743809700012207, 0.014716088771820068, 5.658251324309909e-11, 1695997129.965845, 
-0.00427013635635376, 0.0003179311752319336, 6.720054406454015e-11, 1695997129.9759107, 
0.011950075626373291, 0.027135789394378662, 1.5040081607201996e-06, 1695997129.9858189, 
0.024545252323150635, -0.02137058973312378, 7.080131462243507e-11, 1695997129.9958582, 
0.04066205024719238, 0.010852456092834473, 7.952512652326481e-11, 1695997130.0058088, 
0.04415726661682129, 9.548664093017578e-05, 6.766076605518969e-11, 1695997130.015909, 
0.02425915002822876, -0.014374196529388428, 1.261082832912871e-06, 1695997130.0277255, 
-0.008180618286132812, -0.032305002212524414, 6.338598071945517e-11, 1695997130.0347724, 
-0.013662219047546387, -0.03412771224975586, 3.633884637864286e-11, 1695997130.0447602, 
-0.029849588871002197, -0.010608375072479248, 2.935754605261635e-11, 1695997130.055802, 
-0.0029283761978149414, 0.002084791660308838, 2.7088258183416195e-11, 1695997130.0657334, 
-0.008332431316375732, 0.01645517349243164, 2.121765608598333e-11, 1695997130.0764678, 
-0.0065193772315979, 0.03456604480743408, 2.4253760562711955e-11, 1695997130.0856626, 
0.018577098846435547, 0.012796580791473389, 2.1939170556416804e-11, 1695997130.0948505, 
0.004177749156951904, 0.02173316478729248, 1.390373421795498e-11, 1695997130.107886, 
0.007734715938568115, -0.001612246036529541, 2.2000837356718395e-11, 1695997130.1156657, 
0.013063430786132812, 0.005498409271240234, 1.4292536376943575e-11, 1695997130.1257174, 
0.047070443630218506, -0.012456536293029785, 5.8746859473651514e-12, 1695997130.1356566, 
0.05226540565490723, -0.010692954063415527, -8.79428848562426e-12, 1695997130.1447597, 
0.017947494983673096, -0.003413259983062744, -2.472248833157927e-11, 1695997130.1547651, 
0.0015603303909301758, -0.028808534145355225, -3.1706631487427575e-11, 1695997130.1655328, 
-0.018325090408325195, -0.007019758224487305, -3.708226903443958e-11, 1695997130.175719, 
-0.014858484268188477, -0.014225780963897705, -3.6261145092320815e-11, 1695997130.187663, 
-0.014943480491638184, -0.010554969310760498, -6.808990719471799e-11, 1695997130.1955276, 
-0.036522865295410156, 0.005658566951751709, -1.6103476730940383e-06, 1695997130.2047813, 
-0.03469008207321167, 0.0039904117584228516, -3.010161262553539e-11, 1695997130.215583, 
-0.029253244400024414, -0.003332078456878662, -2.9383224252058644e-11, 1695997130.225568, 
0.0013636946678161621, 0.01843273639678955, -2.018630567355883e-11, 1695997130.2361357, 
0.021136045455932617, -0.001403212547302246, -2.1710102524040515e-11, 1695997130.2454355, 
-0.0021768808364868164, 0.016630887985229492, -1.8843191635436486e-11, 1695997130.255417, 
0.022962331771850586, -0.0031042098999023438, -1.1690600309777285e-06, 1695997130.2681637, 
0.024710237979888916, -0.021068572998046875, -2.3599005355276392e-11, 1695997130.274383, 
0.0335996150970459, -0.03715157508850098, -2.1488897440585357e-11, 1695997130.2843876, 
0.010146498680114746, -0.0011931657791137695, -1.1643237196212943e-11, 1695997130.2944126, 
0.002857029438018799, -0.0029941797256469727, -1.1269841003266883e-11, 1695997130.3054163, 
-0.018751084804534912, 0.007897794246673584, -1.5890320775451739e-06, 1695997130.3147938, 
-0.013398885726928711, 0.00974196195602417, 1.1906477939883457e-12, 1695997130.3253407, 
-0.04391056299209595, 0.029411256313323975, -5.485657041105891e-12, 1695997130.3356264, 
-0.03484553098678589, 0.03119558095932007, -9.21014146696112e-12, 1695997130.348022, 
-0.007821142673492432, 0.013142585754394531, -2.027663449833037e-06, 1695997130.355371, 
0.013798177242279053, 0.0005712509155273438, -9.377430660256751e-12, 1695997130.3653069, 
0.024591147899627686, 0.0022886991500854492, -1.832586550724481e-11, 1695997130.3753054, 
0.028167366981506348, -0.004865050315856934, -1.8469435192524603e-11, 1695997130.3853102, 
0.02270638942718506, 0.0003299713134765625, -2.269675740781257e-11, 1695997130.3961535, 
0.03160274028778076, -0.028271257877349854, -3.64036671300018e-11, 1695997130.4052436, 
0.02965831756591797, -0.013997197151184082, -1.4837451441501429e-06, 1695997130.4152868, 
0.004380762577056885, -0.022925972938537598, -2.027067707783288e-11, 1695997130.4277065, 
-0.004708051681518555, -0.029953300952911377, -3.598826714566354e-11, 1695997130.4351892, 
-0.02093714475631714, 0.002562880516052246, -1.4951438912752806e-06, 1695997130.4451556, 
-0.046091556549072266, 0.02947092056274414, -9.680353837590804e-12, 1695997130.455176, 
-0.02092963457107544, 0.004235506057739258, -1.772027482875289e-11, 1695997130.465145, 
-0.04059767723083496, 0.011440515518188477, 6.035037034185478e-12, 1695997130.4756696, 
-0.024309098720550537, 0.0025254487991333008, -1.5761537573970995e-06, 1695997130.4851239, 
0.03143203258514404, -0.0010567903518676758, -7.653549472455158e-12, 1695997130.4952219, 
0.011721670627593994, 0.004391670227050781, -5.939449210708106e-12, 1695997130.507703, 
0.02786928415298462, 0.013234496116638184, -9.581854238550205e-12, 1695997130.5151095, 
0.047565758228302, -0.009992122650146484, -1.487414106547005e-06, 1695997130.5251276, 
0.020516812801361084, -0.022610843181610107, -7.412263608755109e-12, 1695997130.535186, 
0.015006005764007568, -0.020832180976867676, 7.433415551745958e-12, 1695997130.5451033, 
-0.010225653648376465, -0.02788311243057251, 7.807058714030437e-12, 1695997130.556046, 
0.011228382587432861, -0.015186131000518799, -1.6598636168849412e-06, 1695997130.5650232, 
-0.013991236686706543, -0.0025256872177124023, 3.7202970173710514e-11, 1695997130.5751278, 
-0.04273790121078491, 0.015459954738616943, 2.1545742540721356e-11, 1695997130.5881124, 
-0.02653568983078003, -0.0024129748344421387, -2.115168580860872e-06, 1695997130.5951571, 
-0.010304689407348633, 0.02471989393234253, 4.077079074080082e-11, 1695997130.6051097, 
-0.013841450214385986, 0.006687581539154053, 4.4517255215688777e-11, 1695997130.6150951, 
-0.0012119412422180176, 0.022786080837249756, -1.4906122210060043e-06, 1695997130.6250916, 
0.020364999771118164, 0.03525763750076294, 3.93573647809296e-11, 1695997130.6347752, 
0.037461817264556885, 0.0060686469078063965, 0.0, 1695997130.6451206, 
0.03938716650009155, -0.017329752445220947, -0.0018339305773827051, 1695997130.6549115, 
0.009047150611877441, -0.04412508010864258, -0.0011750551872528351, 1695997130.6673772, 
-0.014016807079315186, 0.0007047653198242188, 0.002317190762032402, 1695997130.6748562, 
-0.027921974658966064, -0.01538938283920288, 0.0038361928281606034, 1695997130.6849594, 
-0.06342798471450806, 0.007592201232910156, 0.006064510582123598, 1695997130.6948593, 
0.11627936363220215, 0.0382312536239624, 0.009762173981161908, 1695997130.70481, 
0.38480591773986816, 0.14056313037872314, 0.021955662579285065, 1695997130.7162495, 
-0.06434482336044312, 0.5125265121459961, 0.10109316077869261, 1695997130.724839, 
-1.2493637800216675, 0.9236619472503662, 0.22090429870297085, 1695997130.7350404, 
-0.7643551230430603, 0.887755274772644, 0.3415346283019305, 1695997130.7472095, 
0.11695802211761475, 0.5032191276550293, 0.7883176747155058, 1695997130.7547338, 
0.03441590070724487, 0.32649707794189453, 0.7236031939467341, 1695997130.7647424, 
-0.33596622943878174, 0.7323564291000366, 0.9005375885429938, 1695997130.7737527, 
-0.8086379170417786, 1.1815073490142822, 0.8111690370509503, 1695997130.7846851, 
-0.7084751129150391, 0.6565229296684265, 0.8505404976450396, 1695997130.796077, 
-0.28799664974212646, 0.08606821298599243, 1.2287793913510543, 1695997130.804643, 
0.1671144962310791, 0.05456531047821045, 1.1121072084088706, 1695997130.8146868, 
0.03426861763000488, 0.03148174285888672, 0.9257145435490952, 1695997130.8271732, 
-0.16448301076889038, -0.37008756399154663, 1.5744340961779106, 1695997130.8346188, 
-0.28908103704452515, -0.40726178884506226, 1.1802821652888855, 1695997130.8446155, 
0.1429588794708252, -0.242839515209198, 1.179599681418876, 1695997130.8546746, 
0.6012488603591919, 0.004938483238220215, 1.19313402860197, 1695997130.8645816, 
0.4558168649673462, 0.03274393081665039, 1.1450677258843782, 1695997130.8747509, 
-0.09004998207092285, 0.12988978624343872, 1.1718099241219697, 1695997130.8845549, 
-0.19321686029434204, -0.003876924514770508, 1.1410789463716624, 1695997130.894581, 
-0.17792189121246338, 0.17325884103775024, 0.9191441010308792, 1695997130.9069939, 
-0.0954771637916565, -0.1369997262954712, 1.4968637503881574, 1695997130.9145806, 
0.5368445515632629, -0.38920241594314575, 1.1294562977153675, 1695997130.9245455, 
0.31830668449401855, -0.22018694877624512, 1.1104328844071352, 1695997130.934509, 
-0.19228976964950562, -0.06767570972442627, 1.2101803531398305, 1695997130.943465, 
-0.21959054470062256, -0.18590933084487915, 0.8450963001514867, 1695997130.9559844, 
-0.11513710021972656, -0.167508065700531, 1.3746340965295327, 1695997130.9634278, 
0.010107219219207764, -0.03916972875595093, 0.9659437473212341, 1695997130.9737854, 
0.07284915447235107, 0.0728522539138794, 0.7623940061745087, 1695997130.9868019, 
-0.07140040397644043, 0.008219301700592041, 1.3097047386950937, 1695997130.9944024, 
-0.34476006031036377, -0.053335607051849365, 1.003527716887173, 1695997131.0044177, 
-0.25501179695129395, 0.009160816669464111, 1.0163509851389483, 1695997131.0144527, 
-0.054210543632507324, 0.060658395290374756, 1.040981217975023, 1695997131.0243642, 
0.05172008275985718, 0.19782191514968872, 0.877612145543931, 1695997131.0361388, 
0.18554991483688354, -0.09353572130203247, 1.2611882730723407, 1695997131.0442865, 
0.13589352369308472, -0.1524466872215271, 1.0163196003080306, 1695997131.054307, 
-0.09537017345428467, -0.05302923917770386, 0.8062846027826199, 1695997131.0667148, 
0.12083840370178223, -0.060625672340393066, 1.3006686801681668, 1695997131.074348, 
0.18823349475860596, -0.2747560143470764, 0.9801279548449726, 1695997131.0844085, 
-0.08813232183456421, 0.0007433295249938965, 0.9950613687840083, 1695997131.0942476, 
-0.07646393775939941, 0.02753537893295288, 0.9734206078196537, 1695997131.104295, 
-0.01915884017944336, 0.05760282278060913, 0.9347755990058139, 1695997131.114785, 
-0.1964969038963318, 0.1600433588027954, 1.0402235171088128, 1695997131.1242416, 
-0.3171740174293518, 0.09108448028564453, 0.994577421013476, 1695997131.1342025, 
-0.13322287797927856, -0.06984251737594604, 0.9962848359858231, 1695997131.1442256, 
0.061617493629455566, -0.14617043733596802, 1.0036837265700957, 1695997131.1541772, 
0.33942335844039917, -0.2085421085357666, 0.9629526350554586, 1695997131.164521, 
0.3459349274635315, -0.1543920636177063, 1.0277120079779178, 1695997131.1741614, 
0.18679040670394897, -0.05829322338104248, 0.9818158488284284, 1695997131.1841607, 
0.14364653825759888, 0.07009643316268921, 0.8429159378045386, 1695997131.1957254, 
0.05750316381454468, 0.17556989192962646, 1.151351676603814, 1695997131.204145, 
-0.10098057985305786, 0.21773689985275269, 0.9665520062383394, 1695997131.214147, 
-0.03998929262161255, 0.11125379800796509, 0.9782928480495768, 1695997131.224107, 
0.04988217353820801, 0.05112487077713013, 0.9967195825340264, 1695997131.234042, 
-0.1381617784500122, -0.026859521865844727, 0.9788009382105, 1695997131.2443867, 
-0.32744067907333374, 0.03545588254928589, 1.065184082014172, 1695997131.2540524, 
-0.2682377099990845, -0.0567852258682251, 1.0488420812145662, 1695997131.2640111, 
-0.024112582206726074, -0.037524282932281494, 0.8977649134293945, 1695997131.275727, 
-0.10419285297393799, -0.02675652503967285, 1.276458265512771, 1695997131.2839637, 
0.10814636945724487, -0.09624624252319336, 1.0400526827241323, 1695997131.2940354, 
0.08625316619873047, 0.00533217191696167, 1.050304077600991, 1695997131.3039992, 
0.2053946852684021, -0.03656494617462158, 1.0487870655978913, 1695997131.3139584, 
0.2789314389228821, -0.12407165765762329, 1.0167221679672303, 1695997131.3242369, 
0.2311881184577942, 0.06735634803771973, 1.0835951810351285, 1695997131.3339093, 
0.15937477350234985, 0.14841455221176147, 1.0455523723678868, 1695997131.343918, 
-0.05334252119064331, 0.001508176326751709, 0.8143228899861584, 1695997131.3565776, 
-0.06619685888290405, -0.06395787000656128, 1.3097446357676925, 1695997131.3643503, 
-0.1310214400291443, -0.023019254207611084, 1.0463143935728578, 1695997131.373957, 
0.11100965738296509, 0.05067324638366699, 1.0035781187941513, 1695997131.3839238, 
0.06542176008224487, 0.00908803939819336, 1.0133498142762918, 1695997131.393868, 
-0.09708541631698608, -0.10974925756454468, 0.9805097693596166, 1695997131.4043036, 
-0.17273449897766113, -0.04369330406188965, 1.0762836071662243, 1695997131.4139645, 
-0.11741644144058228, 0.06648731231689453, 1.062579482448142, 1695997131.4238198, 
0.04904663562774658, -0.021892428398132324, 0.8333364249139784, 1695997131.4363546, 
0.1318301558494568, -0.24055558443069458, 1.3803847996573397, 1695997131.4438117, 
0.353015661239624, -0.1423417329788208, 0.9905621019195284, 1695997131.4540887, 
0.3437396287918091, 0.0681639313697815, 1.032593502903145, 1695997131.4638398, 
0.13718712329864502, 0.060595929622650146, 0.9918327378914505, 1695997131.4739206, 
-0.05994725227355957, -0.06363576650619507, 0.9785274532815522, 1695997131.484122, 
-0.09987199306488037, 0.07040995359420776, 1.0228555478948496, 1695997131.4938855, 
-0.11576741933822632, 0.12884247303009033, 0.9970858072221839, 1695997131.5038857, 
-0.1325029730796814, 0.0051749348640441895, 0.8327603648269989, 1695997131.5158203, 
-0.1325029730796814, 0.0051749348640441895, 1.267334878401125, 1695997131.5236714, 
-0.004327178001403809, -0.014102518558502197, 1.0014359980122336, 1695997131.533696, 
0.10298174619674683, 0.01745164394378662, 1.0161313481557477, 1695997131.5436692, 
-0.0860481858253479, -0.0007807016372680664, 1.029972131992711, 1695997131.5536451, 
-0.2933353781700134, -0.09475117921829224, 1.1301061258159555, 1695997131.5627594, 
-0.3140435218811035, -0.14352858066558838, 0.9457627414944689, 1695997131.5735831, 
-0.0024031996726989746, 0.023408055305480957, 1.015683981724002, 1695997131.5835881, 
0.5046231150627136, 0.08899587392807007, 0.8322179639009025, 1695997131.595737, 
0.6310723423957825, -0.033670663833618164, 1.2998028636664243, 1695997131.6034985, 
0.48000532388687134, -0.08913624286651611, 1.004256893222328, 1695997131.6135561, 
0.23283618688583374, 0.12181037664413452, 1.014009817005053, 1695997131.6235402, 
0.04432022571563721, 0.2312718629837036, 1.0167495986175978, 1695997131.6335135, 
-0.13393110036849976, -0.01069939136505127, 1.093143843159554, 1695997131.642791, 
-0.31087350845336914, -0.13982266187667847, 0.94555115709554, 1695997131.653494, 
-0.16842585802078247, 0.013893187046051025, 1.0060510283356474, 1695997131.6634855, 
-0.04525810480117798, 0.16778194904327393, 0.7896328749746111, 1695997131.6761806, 
0.06898772716522217, 0.12233179807662964, 1.4022595246237124, 1695997131.6834173, 
0.001053154468536377, -0.06045609712600708, 1.0239133031235972, 1695997131.6935709, 
-0.1668214201927185, -0.008848488330841064, 1.074466189901857, 1695997131.7034452, 
-0.2901882529258728, -0.019488275051116943, 1.0691203354991567, 1695997131.7133784, 
-0.04490816593170166, -0.09218668937683105, 1.0213285216262133, 1695997131.7236342, 
0.3510206341743469, -0.13231348991394043, 1.0589491421877448, 1695997131.7333512, 
0.4992527961730957, 0.011752486228942871, 0.9947850566513095, 1695997131.743643, 
0.35977333784103394, -0.001116931438446045, 0.8350169224812829, 1695997131.755879, 
0.015078306198120117, -0.045416831970214844, 1.36966146487983, 1695997131.7633255, 
-0.2685179114341736, -0.12004983425140381, 0.9869179059008736, 1695997131.7736065, 
-0.21328634023666382, -0.07938408851623535, 1.040691909798284, 1695997131.7832487, 
0.19560235738754272, 0.04850643873214722, 0.9902891758419353, 1695997131.7932487, 
0.33550727367401123, 0.10816878080368042, 0.8787100995929717, 1695997131.804427, 
0.21934926509857178, 0.09962373971939087, 1.1123578566230876, 1695997131.813291, 
-0.024471819400787354, 0.08516782522201538, 1.0010448925668274, 1695997131.823265, 
-0.01746988296508789, 0.12587189674377441, 0.7994749650707436, 1695997131.8357444, 
-0.22259467840194702, -0.08480948209762573, 1.3320805393147976, 1695997131.8432252, 
-0.16311097145080566, -0.21545130014419556, 0.9849024172474894, 1695997131.8532562, 
0.040605008602142334, -0.11820924282073975, 0.9899051484937851, 1695997131.8631892, 
0.19743144512176514, 0.09073913097381592, 0.9715456564384067, 1695997131.8733473, 
0.07499963045120239, 0.042980730533599854, 0.9619415574465587, 1695997131.8836849, 
-0.010921776294708252, -0.07678776979446411, 1.061200665912843, 1695997131.8931353, 
-0.1517115831375122, -0.03226828575134277, 1.003427976250405, 1695997131.9031265, 
0.19734275341033936, 0.08545160293579102, 0.9894483886096486, 1695997131.9232364, 
0.27684319019317627, 0.14692479372024536, 1.0080702009095033, 1695997131.9331968, 
0.16079050302505493, 0.05544614791870117, 1.0271922937218645, 1695997131.943065, 
0.026325106620788574, 0.06643122434616089, 1.0133432124580624, 1695997131.9531026, 
-0.1614477038383484, -0.08117020130157471, 0.9327052762966702, 1695997131.9639797, 
-0.21965283155441284, -0.1932377815246582, 1.1109371541790982, 1695997131.9730425, 
-0.03819555044174194, -0.02558976411819458, 1.0034054519660651, 1695997131.9830508, 
0.2794034481048584, 0.1935613751411438, 0.7901361514444316, 1695997131.9958842, 
0.3760225772857666, 0.1313459873199463, 1.4190534511680253, 1695997132.0031674, 
0.11973971128463745, 0.023564040660858154, 1.0394482225378867, 1695997132.0132632, 
-0.12631773948669434, 0.04865676164627075, 1.0775722223678104, 1695997132.0229998, 
-0.36345964670181274, 0.050545692443847656, 1.036729367134027, 1695997132.033084, 
-0.219338059425354, 0.05370599031448364, 0.9745469708933256, 1695997132.0436935, 
0.12019848823547363, -0.13385051488876343, 1.0000772899448935, 1695997132.0539079, 
0.13352376222610474, -0.04052472114562988, 1.0228438029621973, 1695997132.0637994, 
-0.05865013599395752, 0.021091818809509277, 0.8493203856050348, 1695997132.0758018, 
-0.208684504032135, -0.04094010591506958, 1.444663401062856, 1695997132.0829542, 
0.10653257369995117, -0.07861316204071045, 1.0376919013650372, 1695997132.092947, 
0.3543098568916321, 0.042938232421875, 0.9569977323785737, 1695997132.1036904, 
0.3385999798774719, 0.09365057945251465, 1.0802608185551597, 1695997132.1131089, 
0.12152242660522461, 0.11033707857131958, 0.9268459610036601, 1695997132.1240687, 
-0.2445560097694397, 0.05754244327545166, 1.170798352845818, 1695997132.1328204, 
-0.34034430980682373, -0.1526038646697998, 1.0223760517432507, 1695997132.142916, 
-0.14179253578186035, -0.12934660911560059, 0.8338802012376204, 1695997132.1552303, 
0.41454118490219116, 0.0013756155967712402, 1.5477246473252113, 1695997132.1617806, 
0.6928883194923401, -0.0194513201713562, 0.9985505953369908, 1695997132.171789, 
0.2952289581298828, 0.03586316108703613, 0.9057083363283988, 1695997132.1827042, 
-0.17797327041625977, -0.01954174041748047, 1.0870011482459292, 1695997132.191757, 
-0.1562182903289795, -0.08506441116333008, 0.8194330196856134, 1695997132.203704, 
0.09110105037689209, 0.031408488750457764, 1.0764437104179132, 1695997132.212696, 
0.28622865676879883, 0.03140169382095337, 1.0629133000533226, 1695997132.2217517, 
0.10824596881866455, -0.01869446039199829, 0.7088569586543063, 1695997132.2353761, 
-0.10389786958694458, 0.010062873363494873, 1.331312704335359, 1695997132.242661, 
-0.17894428968429565, -0.056041836738586426, 0.9643291144380813, 1695997132.2527018, 
-0.18655186891555786, -0.1511041522026062, 0.9747688058747296, 1695997132.2625802, 
0.10230165719985962, 0.029563605785369873, 0.9466463925676143, 1695997132.2726521, 
0.2904508113861084, 0.226229727268219, 0.8638486115831069, 1695997132.2837162, 
0.24716484546661377, 0.2638774514198303, 1.1065589899774328, 1695997132.2925498, 
-0.12183666229248047, 0.14567750692367554, 0.9890677864258822, 1695997132.302629, 
-0.03869938850402832, 0.1551998257637024, 0.996054190751367, 1695997132.322566, 
0.15931010246276855, 0.05303752422332764, 1.0661026030636358, 1695997132.331784, 
0.03220498561859131, -0.07605504989624023, 0.9173712600832794, 1695997132.3425324, 
-0.08394932746887207, -0.15039163827896118, 1.1039981765920397, 1695997132.3515296, 
-0.10793864727020264, -0.09808617830276489, 0.7960872475556349, 1695997132.3640196, 
-0.037183940410614014, -0.055131494998931885, 1.1694771833475632, 1695997132.372486, 
0.17304199934005737, 0.06699872016906738, 0.9967104599765748, 1695997132.3824348, 
0.2929741144180298, 0.18350249528884888, 0.8082612913376088, 1695997132.3949819, 
0.22461867332458496, 0.34319639205932617, 1.4130180176165534, 1695997132.4024322, 
0.09798461198806763, 0.34428203105926514, 1.0894670600278356, 1695997132.4124837, 
0.10335046052932739, 0.18629467487335205, 1.1409238229382113, 1695997132.4224038, 
0.11700439453125, 0.25002211332321167, 1.1585437622663017, 1695997132.4324281, 
0.13254177570343018, 0.30388325452804565, 1.004780795698349, 1695997132.444187, 
-0.05898177623748779, 0.09576255083084106, 1.4611739794268686, 1695997132.4523604, 
-0.11943662166595459, -0.15523570775985718, 1.1804977808856998, 1695997132.4625025, 
-0.14019560813903809, -0.13169032335281372, 1.213608630765365, 1695997132.4723647, 
0.2050189971923828, 0.2448757290840149, 1.2049463572220733, 1695997132.4823332, 
0.45396071672439575, 0.22490602731704712, 1.210105610589813, 1695997132.4923925, 
0.6028910279273987, -0.08988684415817261, 1.2518113432677913, 1695997132.5023181, 
0.5711668133735657, 0.01867455244064331, 1.2747480757665044, 1695997132.5124643, 
0.15260624885559082, 0.6473610997200012, 1.2969884215368668, 1695997132.5227852, 
0.12779217958450317, 0.6494085788726807, 1.4509626183548505, 1695997132.5322585, 
-0.01919931173324585, 0.0865512490272522, 1.403428943586466, 1695997132.542304, 
-0.21437335014343262, -0.3221888542175293, 1.4447952518473526, 1695997132.5522907, 
0.2384868860244751, 0.40052032470703125, 1.4780645253987346, 1695997132.5621877, 
0.6350216865539551, 0.8088473081588745, 1.4369008362178852, 1695997132.5723932, 
0.26934558153152466, -0.0032924413681030273, 1.50234644490975, 1695997132.5821705, 
-0.22508692741394043, -0.44373875856399536, 1.4908200480948601, 1695997132.592183, 
-0.2501148581504822, 0.33231645822525024, 1.3036800340828822, 1695997132.6038299, 
0.06397765874862671, 0.815118134021759, 1.8668807734722326, 1695997132.6121323, 
0.36073774099349976, -0.05480080842971802, 1.5598025707412613, 1695997132.6221693, 
0.18000000715255737, -0.3916473984718323, 1.5684326696824826, 1695997132.6321921, 
0.07436472177505493, 0.028997600078582764, 1.5864037265313, 1695997132.6420767, 
-0.29835522174835205, 0.2416553497314453, 1.5483222043981706, 1695997132.6521456, 
-0.38204991817474365, 0.5370470881462097, 1.5616534569556166, 1695997132.662056, 
-0.4951881170272827, 0.49127715826034546, 1.505479995666895, 1695997132.672325, 
-0.10960644483566284, -0.18008369207382202, 1.356093948593369, 1695997132.6837301, 
-0.17390555143356323, -0.5676565170288086, 1.8568278950602148, 1695997132.6920056, 
-0.17423933744430542, 0.25639814138412476, 1.5060184726228074, 1695997132.7021, 
-0.4842769503593445, 0.4428260326385498, 1.4857145049657097, 1695997132.712048, 
-0.652926504611969, -0.6399406790733337, 1.4060419363954957, 1695997132.722011, 
-0.4498932957649231, -0.8158758282661438, 1.307227005098691, 1695997132.7321153, 
-0.39027708768844604, -0.12233549356460571, 1.2760267854611897, 1695997132.741925, 
-0.13314509391784668, 0.07996666431427002, 1.1674769614054046, 1695997132.7519424, 
-0.4154500961303711, -0.5800462365150452, 0.8860039136344261, 1695997132.764139, 
-0.29740655422210693, -0.9940676689147949, 1.3025920058740703, 1695997132.7718842, 
-0.08589929342269897, -0.2574731707572937, 0.9512131587707598, 1695997132.7819178, 
0.2533911466598511, 0.34642964601516724, 0.9015632748283319, 1695997132.7919087, 
0.36569708585739136, -0.07157391309738159, 0.8682342797045034, 1695997132.8018754, 
-0.17091810703277588, -0.643736720085144, 0.8380936005078617, 1695997132.8120565, 
-0.4657021760940552, -0.2756426930427551, 0.8758056460553056, 1695997132.821846, 
-0.46967750787734985, 0.33624911308288574, 0.8573015804708679, 1695997132.8318675, 
-0.0194128155708313, 0.4087870121002197, 0.6995439258112132, 1695997132.8439906, 
0.2519146800041199, -0.12087833881378174, 1.230934771775167, 1695997132.8507829, 
0.2229975461959839, -0.3241901397705078, 0.8313517188562645, 1695997132.8607879, 
0.5207627415657043, -0.019262373447418213, 0.7625872983972611, 1695997132.8718061, 
0.5874689817428589, 0.47239410877227783, 0.9657465905999633, 1695997132.8807797, 
0.09228360652923584, 0.5471051335334778, 0.7944348248351313, 1695997132.8921719, 
-0.018635153770446777, 0.08299809694290161, 1.1022183162546135, 1695997132.90077, 
0.20602518320083618, -0.06426787376403809, 0.9896710261554724, 1695997132.9107487, 
0.001711130142211914, -0.037331998348236084, 0.7617246545492335, 1695997132.9240484, 
-0.17553335428237915, 0.2734655737876892, 1.3379000011450521, 1695997132.931701, 
-0.11097651720046997, 0.320881724357605, 1.0275587662245416, 1695997132.9416535, 
0.09703439474105835, -0.0189020037651062, 1.0123998922362436, 1695997132.951723, 
0.03992742300033569, -0.10617536306381226, 1.0275126297084551, 1695997132.961645, 
-0.2682684659957886, -0.12382465600967407, 0.9945226449035748, 1695997132.9718661, 
-0.264958918094635, 0.04247182607650757, 1.0305841413825745, 1695997132.981641, 
0.055086612701416016, 0.17768681049346924, 1.009078171101064, 1695997132.9916322, 
0.18233400583267212, 0.058783769607543945, 0.8169523633104528, 1695997133.0040517, 
-0.07026553153991699, -0.12787771224975586, 1.3591970234812965, 1695997133.0115886, 
-0.11290997266769409, -0.2020365595817566, 1.0330861107900153, 1695997133.021564, 
0.18145745992660522, 0.0793946385383606, 1.0259810401250027, 1695997133.0315802, 
0.2887863516807556, 0.3054381012916565, 1.025586711104616, 1695997133.0415316, 
0.14754241704940796, 0.04745286703109741, 1.0039123043302094, 1695997133.0517242, 
-0.17876183986663818, -0.1643843650817871, 1.0567621064070718, 1695997133.061491, 
-0.39699655771255493, -0.09596341848373413, 1.0339106692586466, 1695997133.0715423, 
-0.14790654182434082, 0.29314714670181274, 0.8167931356902188, 1695997133.0841725, 
0.1033017635345459, 0.2190762758255005, 1.4206606281181513, 1695997133.0914652, 
0.18015438318252563, -0.07773536443710327, 1.0464587173937332, 1695997133.101472, 
-0.055361390113830566, -0.17738354206085205, 1.047860662704274, 1695997133.1115017, 
0.0025187134742736816, 0.046465396881103516, 1.0518808159622623, 1695997133.1214266, 
0.1278718113899231, 0.1982303261756897, 0.9951109399967382, 1695997133.1318328, 
0.0754549503326416, 0.0072675347328186035, 1.0844496940984745, 1695997133.1413605, 
-0.23119115829467773, -0.1929604411125183, 1.0363375292975672, 1695997133.151361, 
-0.34520959854125977, -0.21435904502868652, 0.9118807066251154, 1695997133.1627624, 
-0.1989460587501526, 0.09902691841125488, 1.2056428246985589, 1695997133.171368, 
0.23865151405334473, 0.2848944067955017, 1.0467262976678842, 1695997133.1813629, 
0.5060871839523315, 0.18987160921096802, 1.0773852751552018, 1695997133.1913483, 
0.28584474325180054, 0.05513221025466919, 1.1163724427728474, 1695997133.2013476, 
0.4156878590583801, 0.20930027961730957, 1.0692591212044564, 1695997133.2121649, 
0.37763679027557373, 0.5662810206413269, 1.3099137089381452, 1695997133.2213082, 
0.43425530195236206, 0.47874879837036133, 1.2453599987136155, 1695997133.2312527, 
0.28423142433166504, 0.11061215400695801, 1.0259552253139708, 1695997133.2437406, 
0.6180928945541382, 0.05632281303405762, 1.7772300578230291, 1695997133.2512069, 
0.7373579144477844, 0.6277243494987488, 1.3710390437149944, 1695997133.2612243, 
0.41197484731674194, 0.5900287628173828, 1.4049326951961805, 1695997133.2712343, 
0.3118000030517578, -0.06933534145355225, 1.4433578625529377, 1695997133.2812016, 
0.7645214200019836, -0.25816047191619873, 1.5237875378585601, 1695997133.2907617, 
1.3882777690887451, 0.3130494952201843, 1.3865540628717874, 1695997133.30118, 
1.0464941263198853, -0.11332416534423828, 1.3950898423416678, 1695997133.311406, 
0.5550546646118164, 0.021069884300231934, 1.1539925660868375, 1695997133.3238227, 
-0.12232410907745361, 0.5962820053100586, 1.9945024627052956, 1695997133.3310986, 
-0.17930364608764648, 0.3723487854003906, 1.4687317182037012, 1695997133.3411045, 
-0.10269021987915039, 0.3003963232040405, 1.474769224813274, 1695997133.3511338, 
-0.3408684730529785, 0.3733702301979065, 1.4908199176978623, 1695997133.361108, 
-0.45842134952545166, 0.005129635334014893, 1.3565721672926219, 1695997133.3720925, 
-0.4921085834503174, 0.347095787525177, 1.6615332231520255, 1695997133.381075, 
-0.41514909267425537, 0.42363113164901733, 1.4818480481407423, 1695997133.3910854, 
-0.2746127247810364, -0.31363576650619507, 1.1269760190786815, 1695997133.4041984, 
-0.2671390771865845, -0.2264002561569214, 2.1460390556088442, 1695997133.411044, 
-0.20844656229019165, 0.17355036735534668, 1.4579414551026544, 1695997133.421009, 
-0.8359370231628418, -0.0320855975151062, 1.4049540668909541, 1695997133.431047, 
-1.388489007949829, -0.3289579153060913, 1.3530556731134984, 1695997133.4409623, 
-0.8997530937194824, -0.39710497856140137, 1.1600844235324839, 1695997133.4520173, 
-0.08394545316696167, 0.06114697456359863, 1.3827871548110564, 1695997133.4609659, 
-0.17125749588012695, 0.2967882752418518, 1.1937024071885816, 1695997133.4710953, 
-0.07233864068984985, 0.210585355758667, 0.9174528252070991, 1695997133.4840746, 
-0.20669817924499512, -0.13869166374206543, 1.6823069829315096, 1695997133.4909916, 
-0.7322193384170532, -0.7705204486846924, 1.1331465769774474, 1695997133.5009692, 
-0.647907018661499, -0.20750898122787476, 1.0965032811089428, 1695997133.5110054, 
-0.09574615955352783, -0.047975897789001465, 1.0418268498785306, 1695997133.5211587, 
-0.4330487847328186, -0.8425929546356201, 0.9237831535834139, 1695997133.5321958, 
-0.244245707988739, -0.13498270511627197, 1.1344000990631078, 1695997133.5410123, 
-0.1510184407234192, 0.6335839629173279, 0.9965319948027455, 1695997133.5509217, 
0.1849226951599121, 0.4273630380630493, 0.7776071266945134, 1695997133.5633488, 
0.14140009880065918, -0.684331476688385, 1.246659269758181, 1695997133.5709233, 
-0.022652745246887207, -0.7648870944976807, 0.9302775637022338, 1695997133.58088, 
0.06639707088470459, 0.4286750555038452, 0.9268972220277587, 1695997133.5908043, 
0.3981878161430359, 0.7627521753311157, 1.0159903210191705, 1695997133.599774, 
0.5096932649612427, 0.032653868198394775, 0.7337183210354866, 1695997133.612136, 
-0.007038712501525879, -0.5457326769828796, 1.0793064490543198, 1695997133.620719, 
0.19853585958480835, -0.20673078298568726, 0.952034522626174, 1695997133.6307461, 
0.5547277331352234, 0.6924683451652527, 0.7877627727187742, 1695997133.643111, 
0.304010272026062, 0.599789023399353, 1.284324133165687, 1695997133.6507053, 
-0.12972146272659302, -0.3393412232398987, 0.9646912692732742, 1695997133.660694, 
-0.10061895847320557, -0.3871486186981201, 1.0588271147154962, 1695997133.669787, 
0.13776898384094238, 0.5675121545791626, 0.8939802825826358, 1695997133.6806557, 
0.19975662231445312, 0.8592580556869507, 0.8707073210629028, 1695997133.6918144, 
-0.0601351261138916, -0.20350348949432373, 1.2340011194723346, 1695997133.699636, 
0.05022221803665161, -0.7797902822494507, 0.9570917685568706, 1695997133.7097723, 
-0.17050766944885254, 0.13126349449157715, 0.7541169609844831, 1695997133.7229037, 
-0.011251866817474365, 0.9464365839958191, 1.3160947649555628, 1695997133.7305737, 
-0.5110836625099182, 0.25258123874664307, 1.0162730660474089, 1695997133.740566, 
-0.6563178300857544, -0.8141570091247559, 1.1333265570936717, 1695997133.749553, 
-0.37188977003097534, -0.0821906328201294, 0.9466194230021063, 1695997133.7605536, 
-0.11721378564834595, 0.7775991559028625, 0.9391446289372316, 1695997133.7718017, 
0.14424699544906616, 0.27121949195861816, 1.2204332343467847, 1695997133.7805235, 
-0.19079113006591797, -0.6221550703048706, 1.0589737818717402, 1695997133.7907135, 
-0.18101376295089722, -0.29777467250823975, 0.9011251878802573, 1695997133.8029187, 
0.14061063528060913, 0.586507260799408, 1.4518522867429522, 1695997133.81053, 
0.39926618337631226, 0.46851837635040283, 1.0951514395974027, 1695997133.8204715, 
0.07720911502838135, -0.5705071091651917, 1.0697791589544872, 1695997133.83041, 
0.2970324158668518, -0.34562236070632935, 1.04016171243695, 1695997133.8404458, 
0.4086199998855591, 0.5402854681015015, 0.854251468155673, 1695997133.8523867, 
0.26076841354370117, 0.48940134048461914, 1.2527574558214771, 1695997133.8604112, 
-0.09866619110107422, -0.2745312452316284, 0.9953706388247626, 1695997133.8704004, 
-0.12472349405288696, -0.4967268705368042, 0.7966678434591101, 1695997133.882827, 
0.17039483785629272, 0.216008722782135, 1.310733526991689, 1695997133.890352, 
0.060617804527282715, 0.29162323474884033, 0.9746523311878563, 1695997133.900352, 
0.03719890117645264, -0.39621657133102417, 0.9581278645364499, 1695997133.9104133, 
-0.019602417945861816, -0.33145779371261597, 0.9728924813721966, 1695997133.9203386, 
0.056407272815704346, 0.45783597230911255, 0.8287306137679634, 1695997133.932123, 
-0.16790974140167236, 0.5971230864524841, 1.203992838400358, 1695997133.940287, 
-0.18697714805603027, 0.09905034303665161, 0.9839749247574174, 1695997133.950308, 
-0.10545194149017334, -0.05847078561782837, 0.8002611999383409, 1695997133.9627156, 
0.296924889087677, 0.3043025732040405, 1.2919965824294803, 1695997133.970504, 
0.3595771789550781, 0.34510689973831177, 1.03502500767712, 1695997133.9802518, 
-0.18608152866363525, -0.1901974081993103, 1.0050494424031151, 1695997133.9902089, 
-0.37918680906295776, -0.20412909984588623, 1.0060366906276905, 1695997134.0001523, 
-0.15697962045669556, 0.231828510761261, 0.8335004928128797, 1695997134.0121937, 
0.19707119464874268, 0.11909514665603638, 1.2537914174187983, 1695997134.0201669, 
0.2576577663421631, -0.33946025371551514, 0.9983965645476376, 1695997134.0301685, 
0.07799744606018066, -0.14787548780441284, 0.9960195017146666, 1695997134.0401857, 
-0.08939093351364136, 0.28133195638656616, 1.004032906992901, 1695997134.0501442, 
-0.271576464176178, 0.1399545669555664, 0.9955761957737669, 1695997134.060144, 
-0.4982178211212158, -0.23549097776412964, 0.9932296939131389, 1695997134.0701551, 
-0.13663136959075928, 0.11105364561080933, 1.0044300048552273, 1695997134.0800893, 
0.785071849822998, 0.5627219676971436, 0.9275017993955459, 1695997134.090792, 
0.6310459971427917, 0.24247479438781738, 1.057279642031315, 1695997134.1000423, 
-0.27595072984695435, -0.12686467170715332, 0.9731086230127759, 1695997134.1100636, 
-0.5320876240730286, 0.1006155014038086, 0.9843599869129203, 1695997134.1201086, 
-0.35331499576568604, 0.47035765647888184, 1.0060971455297942, 1695997134.1300554, 
-0.2102535367012024, -0.08143210411071777, 0.9990898643383451, 1695997134.1400948, 
-0.16162681579589844, -0.5839735269546509, 1.010830990849972, 1695997134.1500306, 
0.24766218662261963, 0.02339303493499756, 1.0087875511120796, 1695997134.1600015, 
0.47701704502105713, 0.6731550693511963, 0.8222985526686492, 1695997134.1722317, 
-0.05441635847091675, 0.15551704168319702, 1.2971555509487331, 1695997134.1799538, 
-0.6367304921150208, -0.6056222319602966, 1.0023888907121818, 1695997134.1899831, 
-0.23433393239974976, 0.09028840065002441, 1.0159411887936822, 1695997134.199976, 
0.43566709756851196, 0.7282642722129822, 1.0170599943853782, 1695997134.2099903, 
0.5019038915634155, 0.15990465879440308, 1.0065105489413755, 1695997134.2201202, 
0.09455651044845581, -0.5105698704719543, 1.0409653285283411, 1695997134.2299669, 
-0.04336082935333252, 0.07530021667480469, 1.029467176706663, 1695997134.2400098, 
-0.046142518520355225, 0.5426724553108215, 0.8736280419608342, 1695997134.2518296, 
-0.20232421159744263, -0.08558470010757446, 1.2505163188564328, 1695997134.2599049, 
-0.19894355535507202, -0.24400538206100464, 0.9892576330084395, 1695997134.2699296, 
0.2119053602218628, 0.3141930103302002, 0.9770155843466636, 1695997134.279902, 
0.5031583309173584, 0.30775028467178345, 1.0728254572296534, 1695997134.2888424, 
-0.02640920877456665, -0.46312248706817627, 0.8402025459413393, 1695997134.3002312, 
-0.361780047416687, -0.23546695709228516, 1.0096659800687193, 1695997134.309873, 
-0.19716554880142212, 0.712053120136261, 1.1087236321475518, 1695997134.3188114, 
-0.08689582347869873, 0.4046575427055359, 0.7485325969224714, 1695997134.3320827, 
0.02367377281188965, -0.4325970411300659, 1.3199943160251038, 1695997134.3397176, 
0.11319690942764282, 0.09763503074645996, 1.0114309933820296, 1695997134.349932, 
0.19365233182907104, 0.8141035437583923, 1.0588812194463517, 1695997134.3599014, 
-0.09501850605010986, 0.36905747652053833, 1.0796382156882736, 1695997134.3697286, 
-0.41110217571258545, -0.5691248774528503, 1.1196212513616788, 1695997134.379162, 
-0.10494846105575562, -0.09699738025665283, 1.0024421591768529, 1695997134.3896437, 
0.6418344378471375, 0.43557173013687134, 1.1067944857538345, 1695997134.3989973, 
0.7254287004470825, -0.11946475505828857, 0.7626445623179899, 1695997134.4122875, 
-0.02196115255355835, -0.5147576928138733, 1.3642202684504667, 1695997134.4196017, 
-0.458570659160614, 0.13477671146392822, 0.9910119576963596, 1695997134.4296637, 
-0.6152703762054443, 0.31773197650909424, 0.9703146286753523, 1695997134.4399195, 
-0.2852020859718323, 0.031518757343292236, 1.0251058381173446, 1695997134.449637, 
0.09681874513626099, 0.21717965602874756, 0.9411165556909268, 1695997134.460298, 
0.2698928713798523, 0.5748255848884583, 1.0920811406258977, 1695997134.469585, 
0.006384491920471191, 0.23340171575546265, 1.0359138984174077, 1695997134.4795175, 
-0.7032724022865295, -0.16127878427505493, 0.7954536812602678, 1695997134.4927142, 
-0.45153695344924927, 0.36508017778396606, 1.5720277769959097, 1695997134.4994657, 
0.013704180717468262, 0.5269337296485901, 1.0524347679162993, 1695997134.5095267, 
0.32848668098449707, -0.33441275358200073, 1.0485203064966013, 1695997134.5195081, 
0.5625845789909363, -0.3001353144645691, 1.0144472151204307, 1695997134.5399544, 
-0.23377037048339844, 0.18436658382415771, 1.0732049924755283, 1695997134.5494616, 
-0.4016762971878052, -0.572097659111023, 1.019730853556535, 1695997134.55941, 
-0.060771048069000244, -0.0665513277053833, 0.7912718557619169, 1695997134.5721743, 
0.14065682888031006, 0.5586382746696472, 1.3580005460498756, 1695997134.5795107, 
0.16181832551956177, 0.05186009407043457, 0.9961566647895391, 1695997134.5894256, 
-0.06660133600234985, -0.22759753465652466, 0.9864373465980483, 1695997134.599457, 
-0.2813548445701599, 0.5173238515853882, 1.0064095746351382, 1695997134.6094055, 
-0.5074574947357178, 0.8013121485710144, 0.8998483472230533, 1695997134.6205668, 
-0.5565481185913086, -0.0017673373222351074, 1.1637784340914588, 1695997134.629312, 
-0.1775895357131958, -0.297429621219635, 1.0339642944030474, 1695997134.6393428, 
0.10648375749588013, 0.22786223888397217, 0.8291790193916215, 1695997134.6519454, 
-0.028608083724975586, 0.04240602254867554, 1.387930410441456, 1695997134.6593976, 
-0.2104891538619995, -0.4079158902168274, 1.0339546989503046, 1695997134.6693263, 
0.1219475269317627, 0.061737120151519775, 1.0151836729076003, 1695997134.6792812, 
0.5082044005393982, 0.40313583612442017, 0.9891249994590832, 1695997134.6892872, 
0.7746959924697876, -0.007435023784637451, 0.9040399659429202, 1695997134.700034, 
0.6495311856269836, -0.12371611595153809, 1.0470515553484678, 1695997134.709308, 
0.26284945011138916, 0.3196364641189575, 0.9856734044178153, 1695997134.7192347, 
-0.11855494976043701, 0.3597961664199829, 0.7332698275672213, 1695997134.7326097, 
-0.21875017881393433, -0.18681937456130981, 1.4847865395730937, 1695997134.7392554, 
-0.0982559323310852, 0.23170924186706543, 1.0004820660989848, 1695997134.7493002, 
-0.20110243558883667, 0.7094996571540833, 1.0285766614460876, 1695997134.7592325, 
-0.3758932948112488, 0.22903984785079956, 1.0337503334051528, 1695997134.7693064, 
-0.6051450371742249, -0.13695335388183594, 0.9939796317640109, 1695997134.7799466, 
-0.361066997051239, 0.26119643449783325, 1.139179717800104, 1695997134.7892776, 
0.0237119197845459, 0.11522293090820312, 1.0559977605954227, 1695997134.7992237, 
0.25821250677108765, -0.2737840414047241, 0.7628588168300429, 1695997134.8125262, 
0.46890974044799805, 0.02311992645263672, 1.484028860657207, 1695997134.819196, 
0.0771862268447876, 0.35083699226379395, 0.937235897053138, 1695997134.8295562, 
-0.15589886903762817, -0.047785162925720215, 1.011488579626488, 1695997134.8392324, 
-0.1027907133102417, -0.0868571400642395, 0.9865662859684694, 1695997134.8492873, 
-0.004756748676300049, 0.2901644706726074, 0.9412009106953794, 1695997134.8599417, 
-0.06561827659606934, 0.0018892884254455566, 1.0897824052281, 1695997134.869253, 
-0.26996392011642456, -0.1481902003288269, 1.0290414420130272, 1695997134.8791947, 
-0.1526700258255005, 0.5151650905609131, 0.8064001242140096, 1695997134.8918664, 
-0.06850111484527588, 0.6198937296867371, 1.394236977128779, 1695997134.8991466, 
-0.11513370275497437, -0.15360742807388306, 1.0078463290111717, 1695997134.9091907, 
0.09420442581176758, -0.05102032423019409, 0.9907614040318162, 1695997134.9193099, 
0.35161179304122925, 0.6504562497138977, 0.9988610690118404, 1695997134.9292057, 
0.2204408049583435, 0.22615504264831543, 0.8641995798170984, 1695997134.9405901, 
-0.187799870967865, -0.5002102851867676, 1.1470691733783855, 1695997134.9491947, 
-0.27575498819351196, -0.0077939629554748535, 0.9898361162352308, 1695997134.9591882, 
-0.2535499930381775, 0.20486724376678467, 0.8003251822043839, 1695997134.9714892, 
-0.06931352615356445, -0.08980441093444824, 1.2924749936827138, 1695997134.9791288, 
0.08777934312820435, 0.2930852174758911, 0.987862423977377, 1695997134.9892588, 
-0.12740087509155273, -0.10728394985198975, 0.9987535421853007, 1695997134.9995341, 
-0.17033648490905762, -0.21916258335113525, 1.0396727765031422, 1695997135.009534, 
0.29887813329696655, 0.6344793438911438, 0.9734178017181655, 1695997135.0203362, 
0.258463978767395, 0.37327784299850464, 1.1592545081749943, 1695997135.0293357, 
0.0004329085350036621, -0.2855496406555176, 1.0278192432890634, 1695997135.0392857, 
0.15663087368011475, 0.16339850425720215, 0.8625229152857101, 1695997135.0509903, 
0.4784781336784363, 0.4507067799568176, 1.2404076429423014, 1695997135.0591006, 
-0.09229600429534912, 0.0057381391525268555, 0.959364701464958, 1695997135.0693934, 
-0.37039029598236084, 0.024462461471557617, 0.9985787973219872, 1695997135.079217, 
-0.229373037815094, 0.48685193061828613, 0.9935864022534993, 1695997135.0891688, 
-0.47424715757369995, 0.1725003719329834, 0.926631497923024, 1695997135.0999517, 
-0.3977164626121521, -0.1166042685508728, 1.1082682340790009, 1695997135.1090999, 
-0.2330775260925293, 0.1649998426437378, 1.0351012131141695, 1695997135.1189873, 
0.045833706855773926, 0.056664466857910156, 0.8431253752292902, 1695997135.131077, 
-0.1036372184753418, 0.020842254161834717, 1.2786962782876206, 1695997135.139022, 
0.017950892448425293, 0.4015023112297058, 1.0085232102371666, 1695997135.1490877, 
0.18367743492126465, 0.3042263984680176, 1.013978652370878, 1695997135.1589763, 
-0.09225928783416748, -0.2689893841743469, 0.9967761107131011, 1695997135.1690376, 
0.20190876722335815, 0.1479533314704895, 0.9135256062351627, 1695997135.1800482, 
0.19899320602416992, 0.6385897397994995, 1.1281495631141032, 1695997135.1890464, 
-0.31957513093948364, 0.08420181274414062, 1.0028072576711327, 1695997135.199241, 
-0.4306935667991638, -0.104949951171875, 0.8612523086738765, 1695997135.2112448, 
0.22957879304885864, 0.5662389397621155, 1.35502603746242, 1695997135.2190034, 
0.3037705421447754, 0.21606844663619995, 1.0610523864525183, 1695997135.2290242, 
-0.034508347511291504, -0.17754191160202026, 1.0594347486894626, 1695997135.2391105, 
0.2035009264945984, 0.1944759488105774, 1.0581438466972277, 1695997135.2491374, 
-0.004709899425506592, 0.13029712438583374, 0.9346123485070337, 1695997135.2603083, 
-0.03481942415237427, -0.08518272638320923, 1.1851769432775343, 1695997135.2690449, 
-0.06920850276947021, 0.3330599069595337, 1.0133479213800773, 1695997135.279119, 
-0.1492784023284912, 0.3972126245498657, 0.8356884206284244, 1695997135.291122, 
-0.3405044674873352, 0.05522853136062622, 1.2732930417628097, 1695997135.298932, 
-0.09777551889419556, 0.29754602909088135, 0.9853206085335307, 1695997135.309004, 
0.1329086422920227, 0.2528765797615051, 0.997133628562694, 1695997135.3189583, 
0.09497010707855225, -0.299258828163147, 0.9896014777722328, 1695997135.3289554, 
0.055278658866882324, -0.016341209411621094, 0.8729730091913587, 1695997135.3402903, 
0.004000186920166016, 0.3651691675186157, 1.146342115397314, 1695997135.3489454, 
0.14757025241851807, 0.04698014259338379, 0.9773513431560955, 1695997135.3590682, 
0.10850650072097778, 0.10911107063293457, 1.05739866178616, 1695997135.3683605, 
0.2328794002532959, 0.5040338635444641, 0.9345441451509691, 1695997135.3789127, 
-0.01928764581680298, 0.5101837515830994, 0.9835346916235884, 1695997135.3889754, 
-0.48724424839019775, 0.2761220335960388, 1.0028063670924676, 1695997135.3989432, 
-0.40991348028182983, 0.2837097644805908, 1.0061966137472809, 1695997135.4089422, 
-0.03558236360549927, -0.01904881000518799, 0.9128177144674582, 1695997135.4199646, 
0.04610872268676758, -0.33659642934799194, 1.1199551761342037, 1695997135.4289205, 
0.03985035419464111, 0.1201058030128479, 1.0761300941067429, 1695997135.4382033, 
-0.124941885471344, -0.001264035701751709, 0.9918019926763074, 1695997135.4482214, 
-0.288895845413208, -0.037964701652526855, 1.0034153578984213, 1695997135.4581313, 
-0.11479634046554565, 0.5928792357444763, 0.9785879735503733, 1695997135.4682317, 
0.26300984621047974, 0.551877498626709, 0.9798098073169358, 1695997135.4781258, 
0.308178186416626, 0.03186821937561035, 0.9516551649180226, 1695997135.4882345, 
-0.3241831660270691, 0.24920564889907837, 0.8051223927329549, 1695997135.5002356, 
-0.23690694570541382, 0.44398629665374756, 1.2310057380219275, 1695997135.5081785, 
-0.3257889151573181, -0.16593867540359497, 0.9977590955958888, 1695997135.5181131, 
-0.05388838052749634, -0.18003147840499878, 0.9885079810181197, 1695997135.5281463, 
0.2855871915817261, 0.2600671052932739, 0.9937512645563947, 1695997135.538032, 
0.3011467456817627, 0.014217197895050049, 0.9454736473775818, 1695997135.5483756, 
-0.10361027717590332, 0.1981794834136963, 1.000411578050607, 1695997135.5581388, 
-0.25752466917037964, 0.6559751629829407, 0.9828109892951529, 1695997135.5681195, 
0.14405220746994019, 0.3735013008117676, 0.8048231237051312, 1695997135.5803466, 
-0.3616430163383484, -0.1824791431427002, 1.2945267553444686, 1695997135.5879817, 
-0.23351484537124634, 0.043366074562072754, 0.9866502944782387, 1695997135.5979834, 
0.3255111575126648, -0.11981725692749023, 0.9723026546085093, 1695997135.6080532, 
0.3690077066421509, 0.07197874784469604, 0.9675246163760668, 1695997135.6179361, 
0.41212326288223267, 0.5721151232719421, 0.8830567443152434, 1695997135.6285083, 
0.24701392650604248, 0.04783672094345093, 0.9826039618510273, 1695997135.6379387, 
-0.05612558126449585, -0.1924760937690735, 0.9182825891683719, 1695997135.6481075, 
-0.4755018949508667, 0.8041720390319824, 0.796400570547127, 1695997135.6599627, 
-0.08865880966186523, 0.8171562552452087, 1.207362326923545, 1695997135.6678689, 
0.5773389935493469, -0.09436118602752686, 0.9674759210548999, 1695997135.6779032, 
0.2415999174118042, 0.056887030601501465, 0.993178415091277, 1695997135.687886, 
-0.22721320390701294, 0.1568049192428589, 1.0113753233874379, 1695997135.6978323, 
-0.0011524558067321777, 0.003289937973022461, 0.9297826800499993, 1695997135.7086291, 
-0.21874207258224487, 0.7643979787826538, 1.0627425543855997, 1695997135.7179317, 
-0.11419117450714111, 0.4033331871032715, 0.9631391427395408, 1695997135.7281408, 
-0.01909559965133667, 0.011964917182922363, 0.8370909055478973, 1695997135.7400033, 
-0.4675218462944031, 0.18491077423095703, 1.3021577529082038, 1695997135.7477303, 
-0.46802985668182373, 0.21973055601119995, 1.279964224399792, 1695997135.755758, 
-0.13417470455169678, -0.008744955062866211, 0.948614094150212, 1695997135.7667873, 
-0.07314932346343994, 0.17101365327835083, 1.048421902112904, 1695997135.7768505, 
-0.09254443645477295, 0.23159992694854736, 1.0183734401855027, 1695997135.7872744, 
0.3130951523780823, -0.12996739149093628, 1.0170398231783502, 1695997135.7976897, 
-0.2035624384880066, 0.5990056395530701, 1.1294040623010646, 1695997135.8068907, 
-0.2596251964569092, 0.7536118626594543, 0.7827129052849809, 1695997135.8199964, 
0.11491632461547852, 0.16330242156982422, 1.4945628902611123, 1695997135.826786, 
0.01445305347442627, -0.03623241186141968, 0.9226735499288287, 1695997135.8376904, 
-0.09256845712661743, 0.13446730375289917, 1.0117743448601837, 1695997135.8476648, 
0.1162881851196289, -0.059445083141326904, 1.0190407608450727, 1695997135.857573, 
0.1198122501373291, 0.2314324975013733, 0.9457515800083998, 1695997135.8681533, 
-0.15334457159042358, 0.3394445776939392, 1.073711942297066, 1695997135.877572, 
0.042212486267089844, 0.11292153596878052, 0.9883652125676313, 1695997135.887849, 
0.22408491373062134, 0.3743942975997925, 0.8091138809915297, 1695997135.90034, 
0.26672351360321045, 0.30528050661087036, 1.4031322070256027, 1695997135.9075685, 
0.09138679504394531, 0.032796382904052734, 1.1070112969543457, 1695997135.916755, 
-0.2505626082420349, 0.15343844890594482, 0.9383994782743975, 1695997135.927551, 
-0.13592642545700073, 0.08318841457366943, 1.0159119271570765, 1695997135.9374776, 
0.18285781145095825, -0.06586390733718872, 0.9124014390979115, 1695997135.9483776, 
-0.12770605087280273, 0.5817251801490784, 1.0717544596639086, 1695997135.957454, 
-0.08033043146133423, 0.5198708176612854, 0.9547403392046865, 1695997135.9675028, 
0.03011023998260498, 0.2829516530036926, 0.6925585261503875, 1695997135.9812536, 
-0.2470412254333496, 0.3063611388206482, 1.731036172170939, 1695997135.9867861, 
-0.22016793489456177, 0.24591350555419922, 0.9190639567008875, 1695997135.9974139, 
-0.025714457035064697, 0.022409558296203613, 0.976295586566267, 1695997136.007578, 
-0.2525947093963623, 0.2636127471923828, 1.0235422657041038, 1695997136.017351, 
-0.10690027475357056, 0.3230533003807068, 0.9009718602180062, 1695997136.0285618, 
0.001981973648071289, 0.1006421446800232, 1.1418251503707244, 1695997136.0374215, 
-0.232177734375, 0.1661224365234375, 1.0220669929013597, 1695997136.0473485, 
-0.10628539323806763, 0.0509297251701355, 0.7908044828454389, 1695997136.060261, 
-0.23323386907577515, 0.13941454887390137, 1.453861826438862, 1695997136.0673091, 
-0.039128661155700684, 0.4490400552749634, 1.0112690985042931, 1695997136.077354, 
0.5219452381134033, 0.1785106062889099, 1.0068732321260268, 1695997136.0873473, 
0.5701383352279663, 0.1476183533668518, 1.0107018369029526, 1695997136.0972455, 
-0.04640984535217285, 0.5799039602279663, 0.9148409999072546, 1695997136.108202, 
-0.29775404930114746, 0.2935376763343811, 1.1235370494959005, 1695997136.1171901, 
-0.17744654417037964, 0.30610424280166626, 0.9916677307330718, 1695997136.1273882, 
-0.07375764846801758, -0.10565608739852905, 1.016280614641251, 1695997136.1472745, 
-0.059117674827575684, -0.20826369524002075, 1.0002581464364289, 1695997136.157208, 
0.029578208923339844, 0.3058255910873413, 0.9965422142311423, 1695997136.1672034, 
0.2290123701095581, 0.052197158336639404, 1.0086113397270369, 1695997136.1772175, 
0.16836518049240112, 0.13057035207748413, 0.9304452746520269, 1695997136.1882174, 
-0.17819786071777344, 0.05949586629867554, 1.1684394096587354, 1695997136.1971183, 
0.4327313303947449, 0.15111899375915527, 1.0378550244594948, 1695997136.207161, 
0.19843947887420654, 0.4679718017578125, 0.7641289370912283, 1695997136.220381, 
0.19843947887420654, 0.4679718017578125, 1.4562956413392667, 1695997136.2271395, 
-0.11972367763519287, -0.04529523849487305, 0.9870992239409311, 1695997136.2370894, 
-0.6770197749137878, 0.6884294152259827, 0.9788013302050882, 1695997136.2471259, 
-0.5545269250869751, 0.5836260914802551, 0.9969495141256692, 1695997136.2570968, 
0.050590336322784424, 0.19180148839950562, 0.9125867492164942, 1695997136.2681212, 
0.3235803246498108, 0.18882328271865845, 1.1466990062579656, 1695997136.277019, 
-0.10348939895629883, -0.4033472537994385, 1.0347681712520778, 1695997136.2871792, 
-0.014210522174835205, 0.10637462139129639, 0.8299263137334103, 1695997136.2999506, 
-0.29206228256225586, 0.5143216252326965, 1.4960318437454576, 1695997136.3069792, 
-0.5007840991020203, -0.057520925998687744, 1.0617301631875442, 1695997136.3169825, 
0.20430874824523926, 0.17918217182159424, 1.0571396072913346, 1695997136.3269897, 
-0.275143563747406, 0.16933387517929077, 1.052644823800467, 1695997136.3369172, 
0.29559266567230225, 0.09121370315551758, 0.8829725048464118, 1695997136.3485692, 
0.6435070037841797, 1.1695704460144043, 1.1962379594923669, 1695997136.3569047, 
-0.19116944074630737, 0.5064383745193481, 0.9737513979756769, 1695997136.367044, 
-0.4828002452850342, 0.0004017353057861328, 0.8085369296356978, 1695997136.3795059, 
-0.17649465799331665, 0.5523016452789307, 1.371520928160858, 1695997136.3868906, 
-0.3489990830421448, -0.08267062902450562, 1.0188641729424037, 1695997136.3969634, 
0.3598335385322571, 0.024795949459075928, 1.0352308351675674, 1695997136.4068966, 
0.5487285256385803, 0.18886059522628784, 1.0219182022851274, 1695997136.4167979, 
-0.09462720155715942, -0.41657203435897827, 0.9107643599798096, 1695997136.4280493, 
0.059745609760284424, 0.367186963558197, 1.158556886300731, 1695997136.4368541, 
-0.11560964584350586, 0.6724231839179993, 0.9792770477411998, 1695997136.4471593, 
-0.24873310327529907, -0.12167447805404663, 0.8560986198168109, 1695997136.4591591, 
0.3271079659461975, 0.5449886322021484, 1.2882304588987632, 1695997136.4670765, 
0.5530897378921509, 0.45140498876571655, 1.029375338154679, 1695997136.4768417, 
-0.22391366958618164, 0.7576414346694946, 0.9949718330077155, 1695997136.4869823, 
-0.8143845796585083, -0.05105346441268921, 0.9984533289641571, 1695997136.4969857, 
-0.3657029867172241, -0.016747474670410156, 0.8795200614493719, 1695997136.5084553, 
0.21060645580291748, 0.712424099445343, 1.2463847563538835, 1695997136.5166957, 
0.3503877520561218, -0.0028302669525146484, 0.9817779783386247, 1695997136.5271013, 
-0.16127783060073853, 0.5208505392074585, 0.8546892991048549, 1695997136.5391474, 
-0.16127783060073853, 0.5208505392074585, 1.3679508250857266, 1695997136.5467076, 
-0.6219394207000732, -0.05812430381774902, 1.029583019859143, 1695997136.5566857, 
-0.08087038993835449, 0.6768780946731567, 1.0362564496216022, 1695997136.5667336, 
0.1543949842453003, 0.25646376609802246, 1.0439268369559125, 1695997136.5766335, 
-0.007051587104797363, -0.26087796688079834, 0.8826862691685634, 1695997136.588154, 
0.42273402214050293, 0.4652860164642334, 1.2148693570366749, 1695997136.5965369, 
-0.10753655433654785, 0.003375828266143799, 1.0004992607502685, 1695997136.606556, 
-0.13863903284072876, 0.7865960597991943, 0.9803682945976244, 1695997136.6267204, 
-0.20399290323257446, 0.012525975704193115, 0.9794564607277743, 1695997136.6365747, 
0.20814889669418335, 0.19767069816589355, 0.985527802527954, 1695997136.646488, 
0.10363739728927612, 0.3983042240142822, 0.9855834997328577, 1695997136.6564777, 
-0.2667004466056824, -0.25576233863830566, 0.8104435012050952, 1695997136.6685343, 
-0.16152048110961914, 0.5102608799934387, 1.2406266189329327, 1695997136.6764336, 
-0.04966628551483154, 0.3394882082939148, 0.9652832654902644, 1695997136.686456, 
0.1460937261581421, -0.3488338589668274, 0.7762081605629193, 1695997136.6988878, 
0.7141767144203186, 0.5161612033843994, 1.3263349264793998, 1695997136.7063818, 
0.5464126467704773, 0.35712575912475586, 0.9987746783830701, 1695997136.716487, 
0.36366569995880127, 0.14261078834533691, 1.0189482260350575, 1695997136.726393, 
-0.3284059166908264, 0.3870316743850708, 1.0042050187471638, 1695997136.7363749, 
-0.8224756121635437, 0.13843923807144165, 0.8250265414938289, 1695997136.7483625, 
-0.31459277868270874, 1.2619521617889404, 1.240829398206611, 1695997136.7563488, 
0.22846990823745728, 0.7393705248832703, 0.9832315909190736, 1695997136.7663474, 
0.7406959533691406, -0.652419924736023, 0.9745215304813154, 1695997136.7763693, 
0.12721437215805054, 0.1654457449913025, 0.9946434672143195, 1695997136.7863672, 
-0.022229909896850586, 0.3970301151275635, 0.9653322876887971, 1695997136.7966778, 
-0.17255419492721558, 0.4531618356704712, 1.0294963756103666, 1695997136.8062496, 
-0.0876879096031189, 0.6110510230064392, 0.9883351939090419, 1695997136.8162432, 
-0.04499959945678711, -0.3708258271217346, 0.8105029898611198, 1695997136.8284292, 
0.05514693260192871, 0.364912748336792, 1.2910737237398537, 1695997136.836231, 
0.11794865131378174, 0.7706095576286316, 1.007594679227103, 1695997136.8462946, 
-0.4200097322463989, -0.04240560531616211, 1.0158745991307665, 1695997136.8562217, 
-0.40621137619018555, 0.3117298483848572, 1.0141285519793228, 1695997136.866245, 
-0.6506280303001404, 0.04277855157852173, 0.9975161043104058, 1695997136.8764274, 
0.27926284074783325, 0.20981144905090332, 1.0413711541895634, 1695997136.8861558, 
0.8372045755386353, 0.6992048025131226, 1.0089460162499808, 1695997136.8961189, 
0.11658179759979248, -0.3082861304283142, 0.810031234815468, 1695997136.9083097, 
-0.23912465572357178, 0.16477328538894653, 1.265219238708147, 1695997136.9161344, 
-0.2144755721092224, 0.6114293336868286, 0.9935032476997367, 1695997136.9261267, 
-0.08149784803390503, 0.21437549591064453, 0.986939196590282, 1695997136.9361563, 
0.32689499855041504, 0.4337402582168579, 0.9976581318180201, 1695997136.9461222, 
0.732369601726532, -0.18151193857192993, 0.9538891322182186, 1695997136.9565349, 
0.34907668828964233, 0.1424471139907837, 1.038910464203978, 1695997136.9660673, 
0.05639159679412842, 0.9117125868797302, 0.9871909267134861, 1695997136.976027, 
-0.23097771406173706, 0.09528690576553345, 0.7335649853663017, 1695997136.989277, 
-0.4290465712547302, 0.5324374437332153, 1.4481216594713127, 1695997136.9959779, 
-0.26574569940567017, 0.5494085550308228, 0.9668073771977582, 1695997137.0060244, 
0.08083528280258179, 0.209835946559906, 0.9695525038104458, 1695997137.0160468, 
-0.021777331829071045, 0.4674084782600403, 0.98025905155709, 1695997137.026029, 
-0.23548567295074463, -0.0382845401763916, 0.950508232783646, 1695997137.0363889, 
-0.38544952869415283, 0.27908408641815186, 1.0434044746151336, 1695997137.0459652, 
-0.12841546535491943, 0.32611966133117676, 1.007411004423042, 1695997137.0559623, 
0.06990063190460205, -0.1305890679359436, 0.8023973918335642, 1695997137.0685, 
0.2557433843612671, 0.31331050395965576, 1.3650544105988214, 1695997137.0758572, 
0.29527509212493896, 0.2846093773841858, 0.9965213907450202, 1695997137.0859067, 
-0.15395289659500122, 0.548244059085846, 0.9984512037938483, 1695997137.0959034, 
-0.016596555709838867, 0.5207017660140991, 1.0026965174652978, 1695997137.1058636, 
-0.02928060293197632, 0.021748483180999756, 0.928322479664748, 1695997137.1166012, 
-0.02198481559753418, 0.16657590866088867, 1.0864111779981682, 1695997137.1258302, 
-0.18849080801010132, 0.17499196529388428, 0.9959774705992825, 1695997137.13584, 
-0.11398547887802124, 0.36268967390060425, 0.7780595196326787, 1695997137.1484425, 
0.06060987710952759, 0.6747874021530151, 1.5167986006592027, 1695997137.154769, 
0.44402122497558594, -0.07261025905609131, 0.94788253182601, 1695997137.1647515, 
0.6160089373588562, 0.10507351160049438, 0.8513275624983387, 1695997137.1757982, 
-0.037662506103515625, 0.034839630126953125, 1.0449323580982817, 1695997137.18475, 
-0.0050972700119018555, 0.36016637086868286, 0.8113782555091306, 1695997137.1962829, 
-0.1746165156364441, 0.8705946207046509, 0.9886881343875559, 1695997137.205709, 
-0.1694137454032898, -0.006148159503936768, 0.9354379616909066, 1695997137.2157426, 
0.06091552972793579, 0.1727285385131836, 0.7744000095508997, 1695997137.228138, 
0.06426578760147095, 0.8223555088043213, 1.2916528338687738, 1695997137.2356668, 
-0.18769079446792603, 0.22491437196731567, 0.979137357833806, 1695997137.2457242, 
-0.5897752642631531, 0.23580598831176758, 0.9978271939593079, 1695997137.2556944, 
-0.43073493242263794, -0.41460472345352173, 1.005084588729171, 1695997137.2656329, 
0.4026932716369629, 0.38950592279434204, 0.9419705186567362, 1695997137.276193, 
0.9473471641540527, 0.9674701690673828, 1.0295764982516888, 1695997137.2855852, 
0.14656126499176025, -0.2717156410217285, 0.9355061187262051, 1695997137.2957218, 
-0.44734299182891846, 0.195831298828125, 0.7368574742570476, 1695997137.3086185, 
-0.35664212703704834, 0.4343723654747009, 1.3784022832489202, 1695997137.3155506, 
0.009390830993652344, 0.49507755041122437, 0.9515824571642123, 1695997137.3256428, 
0.26267361640930176, 0.9119184017181396, 0.9650793069679445, 1695997137.3355849, 
-0.08423566818237305, -0.2689979076385498, 0.9381096525311458, 1695997137.3458052, 
-0.054588258266448975, 0.0066034793853759766, 0.9313487245835644, 1695997137.3562758, 
-0.09816861152648926, 0.34947073459625244, 1.0657784804167805, 1695997137.3654835, 
-0.24836492538452148, -0.2693632245063782, 0.9833524068367989, 1695997137.37548, 
-0.004533648490905762, 0.37554454803466797, 0.7701550969848558, 1695997137.3881748, 
-0.10489767789840698, -0.0007666349411010742, 1.3218305902851957, 1695997137.395445, 
0.1442221999168396, 0.6382001638412476, 0.9460804675902998, 1695997137.4054818, 
0.5489108562469482, 0.7838168740272522, 0.9445570785986922, 1695997137.415497, 
0.6931390762329102, -0.24691730737686157, 0.9281366985885215, 1695997137.4256582, 
0.2187308669090271, 0.5087800621986389, 0.9351877458069934, 1695997137.4357584, 
-0.23940587043762207, 0.34217822551727295, 0.9750145079038705, 1695997137.445388, 
-0.28886914253234863, 0.35945403575897217, 0.9387594826098601, 1695997137.4553895, 
-0.3958113193511963, 0.33373433351516724, 0.6941029130276412, 1695997137.4689353, 
-0.043235838413238525, -0.41884303092956543, 1.4688216439014274, 1695997137.4753544, 
0.06385529041290283, 0.5408334732055664, 0.9221516587949071, 1695997137.4856858, 
-0.15668398141860962, 0.7266182899475098, 0.9838988820293202, 1695997137.4954236, 
-0.24407142400741577, 0.22812306880950928, 0.9719462734227327, 1695997137.5053382, 
-0.16666656732559204, 0.34608209133148193, 0.8416690379197662, 1695997137.51683, 
0.3306936025619507, -0.10140568017959595, 1.1415659967723175, 1695997137.5253303, 
0.0828390121459961, 0.6731578707695007, 0.9702102665923646, 1695997137.5352774, 
-0.24293041229248047, 0.44293713569641113, 0.7395487495707173, 1695997137.5481808, 
-0.3339511752128601, -0.14492279291152954, 1.3274960910441582, 1695997137.5554354, 
-0.16985023021697998, 0.3366561532020569, 0.9733680238439526, 1695997137.5654767, 
0.27264511585235596, -0.05706280469894409, 0.9693998368736282, 1695997137.5755863, 
0.2713046669960022, 0.5063934922218323, 1.0135243574588064, 1695997137.585227, 
-0.23882067203521729, 0.3861570954322815, 0.8660215463586061, 1695997137.596421, 
-0.6037376523017883, -0.10129249095916748, 1.1203128778774152, 1695997137.6051764, 
-0.16972565650939941, 0.48612040281295776, 0.9851055634119733, 1695997137.6151843, 
0.276039183139801, 0.11504960060119629, 0.745318209250282, 1695997137.6282375, 
0.618985116481781, 0.1997097134590149, 1.36450680308564, 1695997137.6352155, 
0.24156415462493896, 0.406621515750885, 0.9414641050543731, 1695997137.645147, 
-0.07195156812667847, 0.24698585271835327, 0.9333366303383203, 1695997137.6551714, 
0.25690168142318726, 0.7308913469314575, 0.9406618150243324, 1695997137.6650789, 
0.33605921268463135, 0.004985809326171875, 0.8126123094423783, 1695997137.6763694, 
0.17399102449417114, 0.079243004322052, 1.0477546260161406, 1695997137.6850677, 
-0.16394633054733276, 0.4841199517250061, 0.8815010230820661, 1695997137.6952589, 
-0.24980628490447998, 0.10560077428817749, 0.7793532777545603, 1695997137.7067597, 
-0.368594765663147, 0.44616204500198364, 1.0814561828533902, 1695997137.7150307, 
-0.08141744136810303, 0.06607383489608765, 0.8958630844017296, 1695997137.7250628, 
0.28139597177505493, 0.26140278577804565, 0.9227175982872087, 1695997137.7350285, 
0.002798140048980713, 0.9476763606071472, 0.9466787684883041, 1695997137.7449923, 
-0.1400880217552185, 0.22573333978652954, 0.8034103897411186, 1695997137.7570107, 
-0.5547680854797363, -0.08631032705307007, 1.2372060242025413, 1695997137.7649481, 
-0.5743992328643799, -0.30316948890686035, 0.9779860517689547, 1695997137.7750843, 
0.22761166095733643, 0.39207732677459717, 0.7954215502417982, 1695997137.7874124, 
0.5735278725624084, 1.2958273887634277, 1.271689969296072, 1695997137.7949002, 
0.059527814388275146, -0.10329723358154297, 0.9407780859464548, 1695997137.8049657, 
-0.2122577428817749, -0.09306895732879639, 0.9677356944866474, 1695997137.814922, 
-0.28044748306274414, 0.44797593355178833, 0.9484865681042871, 1695997137.8251088, 
0.06400585174560547, 0.2923780083656311, 0.9415889549293924, 1695997137.8352854, 
0.45194053649902344, 0.6738869547843933, 1.1034299091289594, 1695997137.843799, 
0.18232983350753784, -0.3561297059059143, 0.8445283284874812, 1695997137.8548172, 
0.2986326217651367, 0.20952552556991577, 0.9298257787789961, 1695997137.8648517, 
0.3457714915275574, 0.6414802074432373, 0.9257310018499803, 1695997137.8748794, 
0.4301379323005676, -0.20592200756072998, 1.0220226319638788, 1695997137.883838, 
0.35861676931381226, 0.2931671142578125, 0.8899493220192849, 1695997137.8938854, 
-0.22425371408462524, -0.007534623146057129, 0.8841690643804536, 1695997137.9038336, 
-0.11765432357788086, 0.477294385433197, 0.7202935875651391, 1695997137.91614, 
0.10853409767150879, 1.0572043657302856, 1.16635052537437, 1695997137.9237819, 
0.29488295316696167, -0.06604743003845215, 0.8126879388531796, 1695997137.9348512, 
-0.188646137714386, 0.28958702087402344, 0.9123937435300828, 1695997137.9448273, 
-0.06769174337387085, 0.35796046257019043, 0.9087532178552584, 1695997137.954938, 
0.06491470336914062, 0.49458491802215576, 0.9260647623090484, 1695997137.9649425, 
0.33344876766204834, -0.46815937757492065, 0.9175033338910137, 1695997137.9748793, 
-0.023724138736724854, 0.06253695487976074, 1.0077353076181095, 1695997137.9837537, 
-0.10635966062545776, 0.47520267963409424, 0.6875289758381627, 1695997137.996615, 
-0.09939301013946533, 0.6327294707298279, 1.0856410303995103, 1695997138.0047421, 
0.03999441862106323, 0.6054473519325256, 0.8628740677877202, 1695997138.0149431, 
0.08487653732299805, -0.13647043704986572, 0.8954515749850966, 1695997138.0246878, 
0.03826308250427246, 0.3193301558494568, 0.8795809687355527, 1695997138.0345912, 
-0.1849273443222046, 0.3661928176879883, 0.875781556635006, 1695997138.044602, 
-0.7540635466575623, 0.0035212039947509766, 0.8886967821704269, 1695997138.0545087, 
-0.2309795618057251, 0.12027114629745483, 0.8851647533818517, 1695997138.0645278, 
0.45125073194503784, -0.03494483232498169, 0.7059569874820556, 1695997138.0769582, 
0.5198301076889038, 0.41993284225463867, 1.1476502593474023, 1695997138.0845044, 
0.3658776879310608, 0.27307450771331787, 0.8558120151343837, 1695997138.094492, 
0.25236648321151733, 0.07491940259933472, 0.8506346796791591, 1695997138.1045082, 
0.2256336808204651, 0.3171114921569824, 0.8542930469942035, 1695997138.1144912, 
0.0021054744720458984, 0.2680434584617615, 0.8415145302535594, 1695997138.1245043, 
-0.2281612753868103, 0.2670944333076477, 0.8398445468979032, 1695997138.1344106, 
-0.2997485399246216, 0.27025753259658813, 0.8311484321295678, 1695997138.1443822, 
-0.11233502626419067, 0.21031194925308228, 0.6952743432742331, 1695997138.1563432, 
0.04696977138519287, 0.6588970422744751, 1.0485786268811605, 1695997138.164359, 
0.10841614007949829, 0.48851478099823, 0.8388889196127102, 1695997138.1744199, 
-0.0242118239402771, 0.32069623470306396, 0.858024752676471, 1695997138.1843956, 
-0.19087553024291992, 0.018245398998260498, 0.8649627867786438, 1695997138.1943707, 
-0.11732518672943115, -0.09087628126144409, 0.8572827701508355, 1695997138.2044897, 
-0.2594239115715027, 0.47979259490966797, 0.8772472454907007, 1695997138.2143376, 
-0.0991666316986084, 0.2455059289932251, 0.8522845696154527, 1695997138.2243624, 
-0.057786643505096436, -0.008233845233917236, 0.7117232152639339, 1695997138.236443, 
0.09937268495559692, 0.26640892028808594, 1.122826526933752, 1695997138.2442625, 
0.31774473190307617, -0.08919459581375122, 0.8931990213164063, 1695997138.2542748, 
0.08434498310089111, 0.4284125566482544, 0.8882382762535944, 1695997138.264326, 
-0.5536010265350342, 0.020159661769866943, 0.856819265309114, 1695997138.274577, 
-0.3997535705566406, 0.4868467450141907, 0.8886988264237092, 1695997138.284327, 
0.3532775044441223, 0.7163473963737488, 0.8561854499176107, 1695997138.294214, 
0.6518347859382629, -0.2389165163040161, 0.8203036171725939, 1695997138.3042176, 
0.124808669090271, 0.3141753673553467, 0.6797893093389283, 1695997138.3162334, 
-0.20793002843856812, 0.16782981157302856, 1.015237816312745, 1695997138.3243954, 
0.6566017270088196, 0.012466073036193848, 0.8678163578475394, 1695997138.3341527, 
0.4638984203338623, 0.5270363092422485, 0.8455542374046999, 1695997138.344203, 
-0.13432204723358154, -0.10781347751617432, 0.842148623724956, 1695997138.354127, 
-0.13576161861419678, 0.5018998980522156, 0.8145573585958544, 1695997138.3642554, 
-0.17383968830108643, 0.3869476914405823, 0.8304421020735591, 1695997138.3741312, 
-0.26377445459365845, -0.3778478503227234, 0.7991210310561754, 1695997138.3843873, 
-0.45539146661758423, 0.49707210063934326, 0.6754678624872129, 1695997138.3966467, 
-0.23961365222930908, 0.26696544885635376, 1.1259706713462119, 1695997138.40404, 
0.07788288593292236, 0.444255530834198, 0.8492348878534982, 1695997138.4140725, 
0.4502589702606201, 0.4389873147010803, 0.8780370245849711, 1695997138.424072, 
-0.004630982875823975, -0.13169199228286743, 0.9009365632169002, 1695997138.4340029, 
-0.4340413212776184, 0.6711568832397461, 0.8939863139982184, 1695997138.4441226, 
-0.23444122076034546, 0.4789498448371887, 0.9091566915582141, 1695997138.4539812, 
-0.14902013540267944, 0.07434606552124023, 0.8832679344816624, 1695997138.4640288, 
0.5060876607894897, 0.17213088274002075, 0.7211858718010443, 1695997138.4762154, 
0.6242808699607849, -0.17443901300430298, 1.1176241503530637, 1695997138.48393, 
-0.004706144332885742, 0.621902346611023, 0.8511881068268705, 1695997138.493943, 
-0.6752570271492004, 0.27353960275650024, 0.8488794388809133, 1695997138.5039277, 
-0.344576358795166, -0.2437458634376526, 0.8518412575873864, 1695997138.5138621, 
0.36313676834106445, 0.2961046099662781, 0.819546081335129, 1695997138.5241933, 
0.6358131766319275, 0.17585068941116333, 0.8714263000155009, 1695997138.5338306, 
0.268951416015625, 0.37523800134658813, 0.8116944419159946, 1695997138.5441039, 
-0.07248169183731079, -0.15682536363601685, 0.6762080803431557, 1695997138.5563807, 
0.15030646324157715, -0.173811674118042, 1.1271326627226337, 1695997138.5638099, 
0.1517341136932373, 0.7825807332992554, 0.8378801861599161, 1695997138.5738165, 
-0.08204376697540283, 0.608862578868866, 0.8199823841597588, 1695997138.5838647, 
-0.11708581447601318, 0.3333568572998047, 0.9104626026918221, 1695997138.5927806, 
-0.02155965566635132, -0.1122322678565979, 0.7102035827009929, 1695997138.6042027, 
0.08149617910385132, -0.01018834114074707, 0.8567546318733825, 1695997138.6137226, 
0.12307900190353394, 0.7095994353294373, 0.8981173201986746, 1695997138.6227672, 
0.019578099250793457, 0.18962860107421875, 0.5857928270156987, 1695997138.6365416, 
-0.1092524528503418, -0.1913917064666748, 1.0936638084083075, 1695997138.6439846, 
-0.09997040033340454, -0.04115098714828491, 0.8424833090244935, 1695997138.6537418, 
-0.3778676986694336, 0.3449466824531555, 0.839760502121037, 1695997138.6636748, 
-0.0307198166847229, 1.0998965501785278, 0.8117439805160281, 1695997138.6738994, 
0.09934812784194946, 0.11122798919677734, 0.797689040582454, 1695997138.684253, 
0.11484760046005249, -0.3595380187034607, 0.8922548100614326, 1695997138.6936269, 
0.2330372929573059, 0.005916297435760498, 0.9179700952459742, 1695997138.702787, 
0.16054075956344604, 0.13153505325317383, 0.5996743158638076, 1695997138.716744, 
-0.3702830672264099, 0.9356016516685486, 1.1972668483699542, 1695997138.7236323, 
-0.7922743558883667, -0.09141814708709717, 0.7965851341730088, 1695997138.733835, 
0.1900380253791809, -0.28051280975341797, 0.8288528770094498, 1695997138.7436502, 
1.0523003339767456, 0.5853328704833984, 0.8132962683503506, 1695997138.7535715, 
0.7865239381790161, 0.17707842588424683, 0.7513452978132381, 1695997138.764138, 
-0.10962188243865967, 0.29758262634277344, 0.8381584783731998, 1695997138.7735393, 
-0.3119100332260132, -0.11521023511886597, 0.7756449294716151, 1695997138.7836077, 
-0.024172663688659668, 0.42276662588119507, 0.6188593020750327, 1695997138.7962546, 
0.1724257469177246, 1.1192837953567505, 1.0799693892936286, 1695997138.803457, 
-0.1504167914390564, -0.2575129270553589, 0.7574547950732087, 1695997138.8137214, 
-0.4238951802253723, -0.04475760459899902, 0.8280067008454929, 1695997138.8234272, 
-0.32439297437667847, 0.21451568603515625, 0.8250332510385708, 1695997138.83343, 
0.13189804553985596, 0.09994268417358398, 0.7499578803141957, 1695997138.8445017, 
0.40970534086227417, 0.6728582382202148, 0.9256993402417828, 1695997138.8534584, 
0.09370940923690796, -0.4513857364654541, 0.8138033136771428, 1695997138.8635676, 
0.40591245889663696, 0.15231341123580933, 0.6519180471265514, 1695997138.8761892, 
0.1937413215637207, 0.5990985631942749, 1.1277056026247685, 1695997138.8833768, 
-0.32304906845092773, -0.08083051443099976, 0.7813155546973891, 1695997138.8936403, 
-0.1609986424446106, 0.4230661392211914, 0.829241505730113, 1695997138.9033258, 
-0.3565967082977295, 0.10757988691329956, 0.7847051572395373, 1695997138.9135015, 
0.3918883204460144, 0.48333215713500977, 0.7433648854231176, 1695997138.9241588, 
0.5834754109382629, 0.6142839789390564, 0.85856121470298, 1695997138.933312, 
0.1350882649421692, -0.3871193528175354, 0.7814450507186141, 1695997138.9433722, 
-0.7198448181152344, 0.450114369392395, 0.636658489498302, 1695997138.955944, 
-0.3666415214538574, 0.06347006559371948, 1.090578824684196, 1695997138.9633377, 
-0.05420190095901489, 0.15151536464691162, 0.8099215024371398, 1695997138.9733315, 
0.22042351961135864, 0.14319288730621338, 0.8179286054120241, 1695997138.983241, 
0.4257396459579468, -0.3503910303115845, 0.8191340593460488, 1695997138.9932415, 
0.3922320008277893, 0.5265225768089294, 0.7332605239408994, 1695997139.004497, 
0.26435256004333496, 0.45665186643600464, 0.9404998988265256, 1695997139.0131757, 
0.00808936357498169, 0.10205972194671631, 0.7930223440101128, 1695997139.0233073, 
-0.1058763861656189, 0.3379637598991394, 0.6110346809840127, 1695997139.0362577, 
-0.24284100532531738, 0.31653892993927, 1.1333320423780582, 1695997139.043228, 
0.004118144512176514, 0.5409252047538757, 0.791525988764907, 1695997139.0532146, 
-0.18204069137573242, -0.14574939012527466, 0.7912772762208686, 1695997139.0631452, 
-0.04500114917755127, -0.06706631183624268, 0.7724077607842441, 1695997139.0732548, 
0.0831790566444397, 0.726094663143158, 0.6946713409172671, 1695997139.0843968, 
-0.00687938928604126, 0.2693589925765991, 0.8821350425207971, 1695997139.0930963, 
0.07278811931610107, 0.2344951629638672, 0.7660082289981238, 1695997139.1031075, 
-0.2502066493034363, 0.1007688045501709, 0.766960650300751, 1695997139.123225, 
-0.1688428521156311, 0.3047999143600464, 0.7893715795573074, 1695997139.133077, 
0.18904095888137817, -0.03761756420135498, 0.7919237738856022, 1695997139.143017, 
0.15014636516571045, 0.034457266330718994, 0.79313039919051, 1695997139.1530387, 
-0.14240342378616333, 0.11223137378692627, 0.6967500457093683, 1695997139.1645217, 
-0.39380943775177, 0.31019771099090576, 0.9452117257656341, 1695997139.172967, 
-0.28663378953933716, 0.7938624620437622, 0.7815082942607462, 1695997139.183056, 
0.40617144107818604, 0.088287353515625, 0.6369878346731901, 1695997139.19537, 
0.43704456090927124, 0.129486083984375, 1.2122751739658726, 1695997139.2019076, 
0.22061800956726074, -0.07204097509384155, 0.8044190809170931, 1695997139.2119129, 
0.3623894453048706, -0.22282058000564575, 0.8028209538105933, 1695997139.2218907, 
0.3678634762763977, 0.6757429838180542, 0.7037881275122939, 1695997139.2329094, 
-0.23933899402618408, 0.2168530821800232, 0.6727522269948518, 1695997139.2441828, 
-0.24904227256774902, 0.134471595287323, 0.8714751951373946, 1695997139.2528715, 
-0.04027152061462402, 0.19040733575820923, 0.7594220988980172, 1695997139.2628841, 
0.18696653842926025, 0.010820567607879639, 0.6225120528235897, 1695997139.2752993, 
-0.13913816213607788, 0.5879961252212524, 1.0361053597974939, 1695997139.282821, 
-0.5029318928718567, -0.15939593315124512, 0.7770126824951368, 1695997139.2929268, 
-0.00421375036239624, 0.09047895669937134, 0.8942457258213363, 1695997139.3017554, 
0.4497484564781189, 0.5624329447746277, 0.7042019985198837, 1695997139.312806, 
0.24200576543807983, 0.014038383960723877, 0.6852236771389767, 1695997139.3240838, 
-0.6839670538902283, 0.5842771530151367, 1.0135816974944365, 1695997139.3317733, 
-0.2941581606864929, 0.12043029069900513, 0.6957957879316561, 1695997139.3429852, 
0.5026223659515381, 0.10348820686340332, 0.8864802506838272, 1695997139.3517773, 
0.3951399326324463, 0.7596630454063416, 0.6961428329541269, 1695997139.362809, 
-0.12068402767181396, 0.08426618576049805, 0.760267622020053, 1695997139.3728526, 
-0.14807188510894775, 0.1672080159187317, 0.7744127635988886, 1695997139.3827374, 
-0.22321230173110962, -0.18779778480529785, 0.8504753928560089, 1695997139.3917716, 
-0.4941657781600952, -0.08842051029205322, 0.6172902017048923, 1695997139.40442, 
-0.14356189966201782, 0.5710614323616028, 0.9574670923354553, 1695997139.4126842, 
0.16691339015960693, -0.1655738353729248, 0.8001526966363746, 1695997139.4226992, 
0.7717028856277466, -0.018541574478149414, 0.8138591537038211, 1695997139.4327173, 
0.08099746704101562, 0.39540642499923706, 0.7874899634749045, 1695997139.4428978, 
-0.39423370361328125, 0.605997622013092, 0.7865749190096468, 1695997139.452858, 
-0.14585500955581665, -0.3064969778060913, 0.7829139944079647, 1695997139.4627433, 
0.0814085602760315, 0.047760725021362305, 0.7789292506295077, 1695997139.472637, 
0.1386110782623291, 0.722062885761261, 0.6399924308387964, 1695997139.484565, 
-0.15454888343811035, 0.16611891984939575, 0.9349119012801321, 1695997139.492603, 
-0.21360152959823608, 0.18116974830627441, 0.8181923756905748, 1695997139.5017622, 
0.04223257303237915, -0.15699291229248047, 0.6995973541874457, 1695997139.5125508, 
-0.00021970272064208984, 0.47542238235473633, 0.7576802689668128, 1695997139.5226045, 
0.0060236454010009766, 0.6945762038230896, 0.7651524454396307, 1695997139.5325444, 
-0.48421281576156616, -0.17109936475753784, 0.7656903382429465, 1695997139.5424604, 
-0.07875144481658936, -0.229009211063385, 0.7570178185541439, 1695997139.552687, 
0.2437446117401123, 0.053959548473358154, 0.6922951775190904, 1695997139.5641804, 
-0.09849393367767334, 0.46525514125823975, 0.9810396974519014, 1695997139.5723836, 
-0.10321187973022461, 0.5438727140426636, 0.7975703966016097, 1695997139.5824184, 
0.06708681583404541, -0.2496732473373413, 0.7971391407669816, 1695997139.5923996, 
0.2691372036933899, 0.18023556470870972, 0.7972605575515098, 1695997139.6023748, 
0.12573868036270142, 0.30151814222335815, 0.7665320253984583, 1695997139.612529, 
0.1079511046409607, 0.3535138964653015, 0.7701361507852261, 1695997139.6223485, 
0.05803400278091431, 0.05948519706726074, 0.7313941438332737, 1695997139.6324143, 
0.10869675874710083, -0.0799526572227478, 0.5998969759203668, 1695997139.6444666, 
0.27377867698669434, 0.20996862649917603, 0.903824215986253, 1695997139.652321, 
0.14414560794830322, 0.3937785029411316, 0.6962454711115446, 1695997139.662332, 
-0.15463989973068237, 0.16539669036865234, 0.6989672611955757, 1695997139.6723254, 
-0.11727523803710938, 0.2745653986930847, 0.7174835166966315, 1695997139.682239, 
-0.007626354694366455, 0.18725836277008057, 0.7183465496536567, 1695997139.6923249, 
-0.11121326684951782, 0.3376832604408264, 0.7370655276709935, 1695997139.7022676, 
-0.2940390110015869, -0.21436715126037598, 0.7392663871563212, 1695997139.7123032, 
-0.15973138809204102, -0.10513561964035034, 0.634907732886987, 1695997139.7241669, 
0.3124695420265198, 0.5366803407669067, 0.9240444511688422, 1695997139.7322092, 
0.26062506437301636, -0.010752439498901367, 0.7168898529309597, 1695997139.7422209, 
0.47948962450027466, 0.17476707696914673, 0.7056179544137647, 1695997139.7522388, 
-0.12716370820999146, 0.42144495248794556, 0.7174498926501176, 1695997139.762186, 
-0.1293620467185974, 0.024265587329864502, 0.735849150652773, 1695997139.7721086, 
-0.022355616092681885, 0.46666020154953003, 0.7349959866410786, 1695997139.7821286, 
-0.5574856996536255, -0.09849941730499268, 0.72948917260438, 1695997139.7921383, 
0.08683359622955322, 0.4919378161430359, 0.5858090739960099, 1695997139.804563, 
0.41066575050354004, 0.44964635372161865, 0.9563707774118816, 1695997139.812106, 
0.24833589792251587, -0.6368675827980042, 0.7124896344785699, 1695997139.822132, 
-0.6020185947418213, 0.37256771326065063, 0.7264742469272917, 1695997139.8321428, 
-0.30408036708831787, 0.031054198741912842, 0.7405639807584943, 1695997139.8420773, 
0.299670934677124, 0.2879055142402649, 0.7320921183802851, 1695997139.8521683, 
0.29608744382858276, 0.529922366142273, 0.7481606339568415, 1695997139.8619843, 
0.4157305359840393, -0.3552864193916321, 0.7218092363715728, 1695997139.8719752, 
0.3056279420852661, 0.48677903413772583, 0.5810377143094752, 1695997139.8843217, 
0.27047473192214966, 0.36912018060684204, 1.0651586059763791, 1695997139.8909624, 
0.07856762409210205, -0.10156381130218506, 0.6224723717593913, 1695997139.9020617, 
-0.24053353071212769, 0.25978171825408936, 0.764390862765175, 1695997139.910998, 
-0.6478036046028137, -0.12223988771438599, 0.6147955685160584, 1695997139.921939, 
-0.019383788108825684, 0.6490525007247925, 0.68481063716014, 1695997139.9317558, 
0.26359426975250244, 0.5581995248794556, 0.664757172049994, 1695997139.9419203, 
0.013448953628540039, -0.20851731300354004, 0.6951297036319022, 1695997139.9518995, 
-0.2845522165298462, 0.12257802486419678, 0.5876318605955159, 1695997139.9642453, 
0.043141961097717285, -0.20177626609802246, 0.9793498945758419, 1695997139.9718583, 
-0.1406201720237732, 0.5860531330108643, 0.7554926289416763, 1695997139.9818463, 
-0.5297017097473145, 0.4748682379722595, 0.7492132275067757, 1695997139.9918764, 
-0.01323401927947998, -0.4692710041999817, 0.7525413023386488, 1695997140.0018566, 
-0.1262550950050354, 0.4576115608215332, 0.7187254029132616, 1695997140.0124152, 
0.0013483166694641113, 0.3889455795288086, 0.8095434816392965, 1695997140.0218408, 
-0.027375876903533936, 0.4318042993545532, 0.7648076914228614, 1695997140.031853, 
-0.208895742893219, -0.023836135864257812, 0.6175835326294882, 1695997140.0442507, 
-0.1601455807685852, -0.41529738903045654, 1.031436623212204, 1695997140.0517213, 
0.30763572454452515, 0.7201983332633972, 0.7683024800370688, 1695997140.0617254, 
0.05721205472946167, 0.22692376375198364, 0.8305943954904199, 1695997140.0707617, 
-0.1777295470237732, -0.24386107921600342, 0.685493530364443, 1695997140.0817378, 
0.4767954349517822, -0.06173306703567505, 0.7052038364556668, 1695997140.092506, 
0.6552219390869141, 0.20494800806045532, 0.8178459319912678, 1695997140.1017263, 
-0.1393776535987854, 0.9323517084121704, 0.8185326329489158, 1695997140.1107934, 
-0.10083824396133423, -0.08561718463897705, 0.5273527542151951, 1695997140.124664, 
0.07969164848327637, -0.49459850788116455, 1.0464606308619535, 1695997140.1316319, 
0.08283358812332153, 0.4930989742279053, 0.725870731666228, 1695997140.141632, 
-0.3117128014564514, 0.6710805296897888, 0.7160820117270402, 1695997140.1516352, 
-0.36686062812805176, 0.2028835415840149, 0.7137991827160871, 1695997140.1615832, 
0.19620215892791748, -0.7583519220352173, 0.6681383423973684, 1695997140.1721199, 
0.32589125633239746, 0.04707223176956177, 0.735225718024274, 1695997140.1815605, 
0.43599873781204224, 1.0999280214309692, 0.668535113243301, 1695997140.1916187, 
-0.1786355972290039, 0.19570481777191162, 0.5101238709004898, 1695997140.2045126, 
-0.27915090322494507, -0.49120813608169556, 0.9343533790538334, 1695997140.2115238, 
-0.32544857263565063, -0.3333166837692261, 0.6694764478220072, 1695997140.2215157, 
-0.29286694526672363, 0.4005553126335144, 0.686533242087424, 1695997140.231502, 
-0.040794193744659424, 0.7743757963180542, 0.6884210576719186, 1695997140.2414837, 
0.14065247774124146, -0.6367645859718323, 0.6209864754655653, 1695997140.2526245, 
0.1184762716293335, 0.062105417251586914, 0.7995275557634673, 1695997140.2614546, 
-0.49487727880477905, 0.8627180457115173, 0.7134443844692201, 1695997140.2714782, 
-0.05870872735977173, 0.2663382291793823, 0.5509068873608264, 1695997140.2844534, 
0.11767756938934326, 0.08643198013305664, 1.014769611658014, 1695997140.291432, 
0.3448006510734558, -0.5109856724739075, 0.7074627354850137, 1695997140.3014455, 
0.6385859251022339, 0.8278459906578064, 0.7091017520257397, 1695997140.3114655, 
0.5825321078300476, 0.9136725068092346, 0.692554091119181, 1695997140.3213997, 
0.09758973121643066, -0.7640781998634338, 0.6253216027476067, 1695997140.3322036, 
-0.34624552726745605, 0.03489363193511963, 0.7461254677396016, 1695997140.341359, 
-0.5506396293640137, 0.3887987732887268, 0.6787978893235447, 1695997140.3514333, 
0.13119208812713623, 0.20117861032485962, 0.6870626490037771, 1695997140.3715544, 
0.4624890685081482, -0.8499128818511963, 0.724883416260543, 1695997140.381314, 
0.23958396911621094, 0.6692622303962708, 0.7185761996823691, 1695997140.391314, 
-0.27761268615722656, 0.6261522769927979, 0.7097116419381524, 1695997140.4012928, 
-0.20608001947402954, -0.34568482637405396, 0.6477423937421407, 1695997140.4122229, 
-0.27966493368148804, 0.06448858976364136, 0.7574638829151429, 1695997140.4215305, 
-0.020754992961883545, 0.11307770013809204, 0.7058531899591795, 1695997140.4312913, 
0.5009691715240479, 0.22186774015426636, 0.6809004142789039, 1695997140.4511955, 
0.10191261768341064, -0.36944663524627686, 0.6671922507694533, 1695997140.46138, 
-0.2840731739997864, 0.4324491620063782, 0.6958141506384972, 1695997140.4712303, 
-0.38701701164245605, 0.12937748432159424, 0.6885371969654585, 1695997140.481197, 
-0.6651057600975037, 0.18481719493865967, 0.6130814507539735, 1695997140.4924996, 
-0.06304067373275757, 0.019111037254333496, 0.8064528976235807, 1695997140.5011425, 
0.37043946981430054, -0.4077566862106323, 0.6967302748525287, 1695997140.5111394, 
0.14211273193359375, 0.3007926344871521, 0.5498080456314264, 1695997140.5238566, 
0.1309947371482849, 0.16644328832626343, 0.967564113229457, 1695997140.5310488, 
0.01885366439819336, 0.43933814764022827, 0.6525749590600488, 1695997140.5414186, 
0.01885366439819336, 0.43933814764022827, 0.6814378199740954, 1695997140.5510585, 
-0.19541561603546143, -0.2557559013366699, 0.7335716821683604, 1695997140.5600455, 
0.24007290601730347, 0.44680505990982056, 0.522519257344924, 1695997140.5726898, 
0.07619935274124146, 0.2129533290863037, 0.7865526249999587, 1695997140.5810578, 
-0.1461724042892456, 0.04115062952041626, 0.6437722634523394, 1695997140.5913084, 
-0.45903897285461426, 0.11990219354629517, 0.580694619758576, 1695997140.6027844, 
-0.2573596239089966, 0.05142033100128174, 0.836100343262962, 1695997140.6109555, 
0.1047404408454895, 0.7135610580444336, 0.6794855128506839, 1695997140.6212049, 
0.29108643531799316, 0.17723751068115234, 0.7258092677247565, 1695997140.6308787, 
-0.452839732170105, -0.016769111156463623, 0.7168849067776691, 1695997140.6409144, 
-0.27583974599838257, 0.26210498809814453, 0.6359273195027891, 1695997140.6525195, 
0.04171270132064819, 0.25058406591415405, 0.8821868358002651, 1695997140.660929, 
-0.2781543731689453, 0.39539384841918945, 0.7323229983302744, 1695997140.6709132, 
-0.23600709438323975, -0.27809226512908936, 0.586176991052125, 1695997140.6832898, 
-0.06397902965545654, 0.03557389974594116, 0.9475404853966973, 1695997140.690836, 
0.2890239953994751, 0.4806663990020752, 0.6925532260084512, 1695997140.7008784, 
0.08664292097091675, 0.18172144889831543, 0.677395134422225, 1695997140.7108161, 
-0.014114439487457275, 0.22256433963775635, 0.6581844550006876, 1695997140.7208347, 
-0.32752329111099243, -0.3652494549751282, 0.5780836126557619, 1695997140.7322242, 
-0.14127522706985474, 0.0644979476928711, 0.8620005894092706, 1695997140.7397852, 
0.15385133028030396, 0.6440953016281128, 0.6384187817230891, 1695997140.7497585, 
0.4922982454299927, 0.014066100120544434, 0.6430381945901086, 1695997140.7697825, 
0.12593281269073486, 0.33546632528305054, 0.678973680412294, 1695997140.7797732, 
-0.17987436056137085, 0.2853541970252991, 0.6266176114535142, 1695997140.7909377, 
-0.5232438445091248, 0.3378554582595825, 0.7175247752643396, 1695997140.8007112, 
-0.4418526887893677, -0.5320552587509155, 0.6040530684439339, 1695997140.812178, 
0.33242547512054443, 0.9650087952613831, 0.777928622030673, 1695997140.8206937, 
0.4554066061973572, 0.580044150352478, 0.6338525116211211, 1695997140.8306916, 
0.38694334030151367, -0.7254624366760254, 0.6491630697510303, 1695997140.8406863, 
0.15476006269454956, 0.002553880214691162, 0.6748978852062941, 1695997140.850628, 
-0.34861570596694946, 0.2683699131011963, 0.7411613460871712, 1695997140.859752, 
-0.1838773488998413, 0.956708550453186, 0.6090345764500283, 1695997140.8708324, 
-0.23160260915756226, 0.21155387163162231, 0.6790385305738782, 1695997140.8806548, 
-0.07552289962768555, -1.0282093286514282, 0.554000440924686, 1695997140.892905, 
0.3055923581123352, 0.46262621879577637, 0.883998905410241, 1695997140.900628, 
-0.2745589017868042, -0.11921268701553345, 0.6545883491088409, 1695997140.9109886, 
-0.4175361394882202, -0.446905255317688, 0.6942805839547743, 1695997140.920858, 
-0.1425442099571228, -0.25894153118133545, 0.704415130120393, 1695997140.9306843, 
0.17837202548980713, 1.1716573238372803, 0.706457666457199, 1695997140.9406328, 
0.38538801670074463, 0.28394263982772827, 0.6996884682656427, 1695997140.950723, 
0.734607458114624, -0.5908440947532654, 0.710424682136329, 1695997140.9605677, 
0.2504330277442932, 0.5202763676643372, 0.5926973735953868, 1695997140.9722292, 
-0.059502482414245605, 0.26725107431411743, 0.8170918200248369, 1695997140.9805298, 
-0.06317102909088135, 0.5434486269950867, 0.6706155210361764, 1695997140.9904656, 
-0.46005862951278687, -0.19598239660263062, 0.6523517650088317, 1695997141.0004985, 
-0.35974305868148804, -0.03185826539993286, 0.6572934992360618, 1695997141.0104415, 
-0.31793802976608276, 0.6269864439964294, 0.6460159099700252, 1695997141.0206714, 
0.12892913818359375, -0.3924558758735657, 0.6767716472117175, 1695997141.03037, 
0.20116841793060303, 0.1834295392036438, 0.6341905956175266, 1695997141.040632, 
0.00010323524475097656, 0.47044837474823, 0.538414952041566, 1695997141.0525095, 
-0.3194049596786499, 0.04952883720397949, 0.8047405143577547, 1695997141.0603967, 
-0.5041258335113525, 0.1787043809890747, 0.6392959368838314, 1695997141.0703776, 
0.05574190616607666, -0.38049429655075073, 0.6358330303664702, 1695997141.0803971, 
0.12186866998672485, 0.4577409625053406, 0.6341712114074877, 1695997141.0904455, 
0.2673238515853882, 0.42983394861221313, 0.6180914611598464, 1695997141.1006265, 
0.1494908332824707, -0.24739456176757812, 0.6437416173229854, 1695997141.1102567, 
-0.03865402936935425, 0.4333624839782715, 0.6295130088540124, 1695997141.1202447, 
-0.6489522457122803, 0.3933919668197632, 0.5310682916519872, 1695997141.132277, 
-0.590842604637146, -0.007960736751556396, 0.8055208896532728, 1695997141.140229, 
0.2426745891571045, -0.18351244926452637, 0.6442989511508371, 1695997141.1502743, 
0.7248169779777527, -0.22594141960144043, 0.6507111086884075, 1695997141.1603012, 
0.47328072786331177, 0.524969756603241, 0.6404098719933784, 1695997141.1704044, 
0.004729330539703369, 0.12253814935684204, 0.6490134491464575, 1695997141.180199, 
-0.00806349515914917, -0.18488776683807373, 0.6350035416594835, 1695997141.1901662, 
-0.06059861183166504, 0.40164291858673096, 0.6344233874192577, 1695997141.200116, 
0.1655445098876953, 0.3639625310897827, 0.48186917656608746, 1695997141.2129416, 
-0.11272138357162476, 0.35349106788635254, 0.8299164705656066, 1695997141.2201374, 
-0.06258344650268555, -0.24862295389175415, 0.593900390866991, 1695997141.2300882, 
-0.10898888111114502, -0.03690385818481445, 0.597499950149813, 1695997141.2401218, 
-0.2859375476837158, 0.815460205078125, 0.6138149655985358, 1695997141.2500832, 
-0.5140193700790405, 0.01647859811782837, 0.61481022421653, 1695997141.2601874, 
0.10048550367355347, -0.17949074506759644, 0.640926673332458, 1695997141.2701008, 
0.1929141879081726, 0.22456860542297363, 0.6439891119914818, 1695997141.2801347, 
-0.15915876626968384, 0.03402101993560791, 0.5419722693694939, 1695997141.2922046, 
0.04899156093597412, 0.4564443826675415, 0.8482705505162155, 1695997141.299972, 
-0.11855649948120117, -0.32516664266586304, 0.642655220915924, 1695997141.3100982, 
0.32392680644989014, 0.5594795346260071, 0.6403578110743344, 1695997141.3200655, 
0.11685681343078613, 0.6936180591583252, 0.6250430177799663, 1695997141.3299942, 
0.020477890968322754, -0.5343560576438904, 0.5526602270520237, 1695997141.34108, 
-0.20961695909500122, 0.11429321765899658, 0.699906399495993, 1695997141.3499513, 
-0.11297792196273804, 0.23891019821166992, 0.612122782653457, 1695997141.3599768, 
0.1341186761856079, 0.25568801164627075, 0.4958437889663554, 1695997141.372254, 
0.15280061960220337, 0.2933991551399231, 0.7979165776973638, 1695997141.3799536, 
0.3200925588607788, -0.5028342008590698, 0.6183857642485732, 1695997141.3900995, 
0.29761260747909546, 0.4889620542526245, 0.6504157444369029, 1695997141.3999314, 
-0.1371312141418457, 0.21072351932525635, 0.6295410959576535, 1695997141.410036, 
-0.2525213956832886, -0.3186332583427429, 0.6171065097069314, 1695997141.420366, 
-0.18928897380828857, 0.3270148038864136, 0.6794550369255933, 1695997141.4298809, 
-0.4626668691635132, 0.31743931770324707, 0.6333879766686057, 1695997141.4399126, 
-0.290488064289093, 0.7670421600341797, 0.5134767998290438, 1695997141.452256, 
0.1890740990638733, 0.23899978399276733, 0.9652687068761014, 1695997141.4588268, 
0.3529570698738098, -0.23159027099609375, 0.5753041297340925, 1695997141.4698749, 
-0.10044801235198975, 0.5981085896492004, 0.7149938154036578, 1695997141.4788353, 
-0.03993314504623413, -0.037185072898864746, 0.5909240032257725, 1695997141.4897137, 
-0.3055844306945801, 0.26242589950561523, 0.604692696008326, 1695997141.5004015, 
-0.2804350256919861, 0.28303825855255127, 0.7000576739407574, 1695997141.5096743, 
-0.1410846710205078, -0.2078685760498047, 0.654101762397246, 1695997141.519706, 
0.052500128746032715, 0.251705527305603, 0.51680585414343, 1695997141.53266, 
0.2685665488243103, -0.21043628454208374, 0.9608937057139149, 1695997141.5397022, 
0.07126331329345703, 0.4310540556907654, 0.6564212075610215, 1695997141.549989, 
-0.2746696472167969, 0.3363455533981323, 0.6850631297730314, 1695997141.5596561, 
-0.4460277557373047, -0.12953239679336548, 0.6542614575700322, 1695997141.569701, 
0.03423053026199341, 0.707236111164093, 0.6127906550099359, 1695997141.5802782, 
-0.17053860425949097, -0.10240083932876587, 0.6732700853507437, 1695997141.5896575, 
0.1372053623199463, -0.3721616268157959, 0.6194020397643228, 1695997141.5997348, 
0.7690218091011047, 0.09398579597473145, 0.5335234201522929, 1695997141.6113226, 
0.46482372283935547, 0.1984165906906128, 0.7321565523027094, 1695997141.619692, 
-0.14585214853286743, 0.799305260181427, 0.6013711739307334, 1695997141.6297455, 
-0.4700291156768799, -0.3473106026649475, 0.6035263183773509, 1695997141.6396782, 
-0.4775826930999756, -0.28353387117385864, 0.6066787391530373, 1695997141.6496167, 
-0.39378517866134644, 0.8027247786521912, 0.5368055847928668, 1695997141.6610017, 
-0.10683053731918335, 0.22036820650100708, 0.7088552549309175, 1695997141.6696565, 
0.3423934578895569, -0.18031305074691772, 0.6111865677125168, 1695997141.6798816, 
0.23798835277557373, -0.18224632740020752, 0.5148983349884937, 1695997141.6922174, 
-0.24755936861038208, 0.6076990962028503, 0.8686712131907937, 1695997141.6996193, 
-0.35734862089157104, 1.0381178855895996, 0.677786172509468, 1695997141.7089777, 
0.019118309020996094, -0.47055530548095703, 0.5818434597794694, 1695997141.7196612, 
0.6447910666465759, -0.11272108554840088, 0.6133202452058112, 1695997141.7296412, 
0.25304996967315674, 0.3843238353729248, 0.5772200929331626, 1695997141.740253, 
-0.1465556025505066, 0.17205530405044556, 0.6512913706797776, 1695997141.7495735, 
-0.2286795973777771, 0.09168881177902222, 0.6535069551300267, 1695997141.7588284, 
-0.5381264090538025, -0.45077550411224365, 0.44322945991979606, 1695997141.7725918, 
-0.4363631010055542, 0.5227341651916504, 0.8956937460130354, 1695997141.7796018, 
0.1576412320137024, 0.43116283416748047, 0.6386746750511677, 1695997141.7895868, 
0.6215358972549438, -0.5313019752502441, 0.6502189914277978, 1695997141.7995176, 
0.08452796936035156, 0.33410775661468506, 0.6260422719255218, 1695997141.8096998, 
-0.31521815061569214, 0.09388148784637451, 0.571339155858824, 1695997141.820559, 
0.4082934260368347, 0.6074425578117371, 0.6660252104665988, 1695997141.8295255, 
0.3103466033935547, 0.2950248718261719, 0.567398865669456, 1695997141.8395965, 
0.08762794733047485, -0.3712576627731323, 0.453174422655484, 1695997141.8522103, 
-0.16307061910629272, 0.5935662984848022, 0.8022977542125178, 1695997141.8594675, 
-0.20278292894363403, 0.12696611881256104, 0.5735743587453828, 1695997141.86955, 
-0.25348901748657227, 0.20985746383666992, 0.5832158992797339, 1695997141.8794734, 
-0.341513991355896, 0.5840136408805847, 0.5811099085392075, 1695997141.8895068, 
-0.2114274501800537, -0.4594823718070984, 0.5600062869938307, 1695997141.9003122, 
-0.11433011293411255, 0.14367306232452393, 0.694397055689187, 1695997141.9094496, 
0.28575462102890015, 0.07235068082809448, 0.6382987325747393, 1695997141.919473, 
-0.34178709983825684, 0.1510748267173767, 0.5294625609373785, 1695997141.9318511, 
-0.5728283524513245, 0.3553372025489807, 0.8501246254110859, 1695997141.939609, 
-0.36669427156448364, -0.23097163438796997, 0.6580429468956349, 1695997141.9494865, 
0.42446601390838623, 0.8110904693603516, 0.6359860132915693, 1695997141.9594364, 
0.8207874894142151, 0.3954610824584961, 0.6142979147850607, 1695997141.9694705, 
0.2340894341468811, -0.2550872564315796, 0.5480519550745773, 1695997141.9806998, 
-0.3053605556488037, 0.21077477931976318, 0.6992694574678554, 1695997141.9895883, 
-0.39608848094940186, 0.012308657169342041, 0.6201798718665128, 1695997141.9994504, 
-0.14768803119659424, 0.5924311876296997, 0.5405137428014535, 1695997142.0105748, 
-0.15072065591812134, -0.1577911376953125, 0.6732160711473073, 1695997142.019445, 
0.5213794112205505, -0.5665799975395203, 0.604079069556992, 1695997142.0294807, 
0.6908564567565918, 0.5462241172790527, 0.5954995850048127, 1695997142.0396826, 
0.1997603178024292, 0.2118607759475708, 0.6153429255518319, 1695997142.0495481, 
-0.0657913088798523, 0.12388712167739868, 0.5479425087219156, 1695997142.0605452, 
-0.33327656984329224, 0.051359593868255615, 0.6631069126794678, 1695997142.0694923, 
-0.25155144929885864, 0.27846866846084595, 0.6004418359303303, 1695997142.079421, 
-0.21999645233154297, 0.7801804542541504, 0.4980749387314797, 1695997142.0913968, 
-0.24080240726470947, -0.17611801624298096, 0.7508867167094678, 1695997142.0993907, 
-0.08625000715255737, 0.10358774662017822, 0.6021767823793321, 1695997142.1094444, 
-0.062023043632507324, 0.6504810452461243, 0.5981055275245054, 1695997142.1194308, 
0.09356343746185303, 0.13743269443511963, 0.599693661812279, 1695997142.1294143, 
-0.17243599891662598, 0.135434091091156, 0.5106386523196091, 1695997142.1411405, 
-0.31693047285079956, -0.25460511445999146, 0.7315752321942884, 1695997142.14939, 
-0.12468117475509644, 0.06707990169525146, 0.6171302449096233, 1695997142.1594038, 
0.023192405700683594, 0.3547540307044983, 0.5261510695006639, 1695997142.1713793, 
0.10126715898513794, -0.18894445896148682, 0.8000553125512335, 1695997142.1793463, 
0.008208096027374268, -0.016402840614318848, 0.6366154614617385, 1695997142.1893883, 
-0.41579318046569824, 0.016643524169921875, 0.6340090972577034, 1695997142.1994026, 
-0.362588107585907, 0.23779815435409546, 0.5996409510404244, 1695997142.209632, 
0.3018866181373596, 0.6542346477508545, 0.5278450489941366, 1695997142.22058, 
0.3146857023239136, 0.03738522529602051, 0.6236202547729824, 1695997142.2293065, 
0.047467947006225586, 0.06666773557662964, 0.5273637263267527, 1695997142.2393777, 
0.09506350755691528, -0.07366794347763062, 0.5647645572500942, 1695997142.2486699, 
0.2639283537864685, 0.25940078496932983, 0.48515520862387834, 1695997142.259331, 
-0.2747727036476135, 0.5086561441421509, 0.5119058800162947, 1695997142.2693822, 
-0.3002580404281616, -0.616788923740387, 0.5289910619882442, 1695997142.2793694, 
-0.12303227186203003, -0.015464425086975098, 0.5842382053855973, 1695997142.2888212, 
-0.025771021842956543, 0.7280637621879578, 0.48273883916437693, 1695997142.300739, 
-0.16455340385437012, 0.21528738737106323, 0.7514984468667382, 1695997142.30869, 
-0.24537932872772217, 0.2403157353401184, 0.6110604556951711, 1695997142.3186526, 
-0.3409568667411804, -0.06471478939056396, 0.6142700927498859, 1695997142.3286166, 
-0.19911789894104004, 0.8173262476921082, 0.6050340010885917, 1695997142.3386598, 
0.3663983941078186, 0.30866026878356934, 0.6063089004993408, 1695997142.3485687, 
0.20237088203430176, -0.7150484919548035, 0.6086091442690854, 1695997142.3586025, 
0.08672988414764404, 0.5716739892959595, 0.6091870691788168, 1695997142.3686275, 
-0.3116844892501831, 0.4148164987564087, 0.5110465698259563, 1695997142.380294, 
-0.12396872043609619, 0.09849351644515991, 0.7107088504956885, 1695997142.388597, 
-0.02956634759902954, 0.1179053783416748, 0.590028339267345, 1695997142.3986106, 
-0.14455479383468628, 0.5435306429862976, 0.5899849622892313, 1695997142.4088855, 
-0.14537489414215088, -0.3080112934112549, 0.5741270900070334, 1695997142.4194481, 
0.30047619342803955, -0.23344820737838745, 0.6364429677530706, 1695997142.428869, 
-0.239166259765625, 0.7006317377090454, 0.6092068481468618, 1695997142.4386613, 
-0.07328647375106812, -0.25544148683547974, 0.5977275942866609, 1695997142.448515, 
0.704137921333313, 0.36458128690719604, 0.49484516075105517, 1695997142.4604156, 
0.6786747574806213, 0.5775734186172485, 0.7228589642703123, 1695997142.4684796, 
-0.0954430103302002, 0.05747133493423462, 0.5740004941872878, 1695997142.4784534, 
-0.3921964168548584, 0.11327534914016724, 0.5754068988817381, 1695997142.4884338, 
-0.3269641399383545, -0.17659926414489746, 0.5789931469040943, 1695997142.4983478, 
-0.47804367542266846, 0.7493391036987305, 0.5721639443149781, 1695997142.5084383, 
-0.290757417678833, 0.2468416690826416, 0.579007216131496, 1695997142.518459, 
0.21485841274261475, -0.8303363919258118, 0.5852242371661626, 1695997142.52834, 
0.26762622594833374, 0.5765454769134521, 0.4920962034765796, 1695997142.540327, 
-0.03176361322402954, 0.4597991704940796, 0.7501934813612355, 1695997142.5483348, 
-0.2795053720474243, 0.2026987075805664, 0.6064390784570866, 1695997142.5582578, 
-0.465661883354187, -0.04537755250930786, 0.5931827295784953, 1695997142.5683222, 
0.06623655557632446, 0.023700356483459473, 0.5884117019983506, 1695997142.5784042, 
0.4044872522354126, 0.650438129901886, 0.5781821402995432, 1695997142.5885742, 
0.25759029388427734, -0.20976972579956055, 0.5964034397591286, 1695997142.598224, 
-0.32658547163009644, -0.01603853702545166, 0.5687021209127767, 1695997142.6082678, 
-0.6353768110275269, 0.7038735747337341, 0.5036320438930958, 1695997142.6197674, 
-0.533832848072052, 0.00763547420501709, 0.6882365280285797, 1695997142.628263, 
0.03368794918060303, -0.052908241748809814, 0.5938558633109825, 1695997142.638233, 
0.7236210703849792, -0.12133967876434326, 0.6658225741147458, 1695997142.6471052, 
0.3456713557243347, 0.32124632596969604, 0.5801452383150068, 1695997142.6571019, 
0.07873845100402832, 0.2998494505882263, 0.4826352169675948, 1695997142.6688514, 
0.11213183403015137, -0.19389265775680542, 0.6683734998841231, 1695997142.677145, 
-0.06080549955368042, 0.2573983669281006, 0.4931495833519577, 1695997142.688126, 
-0.22923558950424194, 0.24559563398361206, 0.43865331423310105, 1695997142.7003903, 
-0.17845439910888672, 0.1603594422340393, 0.7013143292583651, 1695997142.7080925, 
0.0195997953414917, 0.5780990123748779, 0.5380074722093497, 1695997142.7181046, 
-0.04606473445892334, 0.1738792061805725, 0.5360519246596759, 1695997142.7280343, 
-0.0804029107093811, 0.04378104209899902, 0.5253477335913432, 1695997142.738201, 
-0.20460247993469238, -0.1748635172843933, 0.5072616901305262, 1695997142.7489054, 
-0.05204373598098755, -0.013812720775604248, 0.6097855011483033, 1695997142.757933, 
0.057039499282836914, 0.4581030607223511, 0.5432445787170301, 1695997142.7679675, 
-0.05946755409240723, -0.15726983547210693, 0.4258559845999733, 1695997142.7806616, 
0.4698559641838074, 0.19306182861328125, 0.7577256396989497, 1695997142.787925, 
0.03313058614730835, 0.41251569986343384, 0.5560932858300707, 1695997142.7979555, 
-0.13910198211669922, 0.06837290525436401, 0.5596173075556047, 1695997142.8079846, 
-0.2720978260040283, 0.29186922311782837, 0.5721693189970317, 1695997142.8178778, 
-0.28545451164245605, -0.08815234899520874, 0.5291576209165056, 1695997142.82853, 
-0.3402312397956848, 0.7834627032279968, 0.5915497286613624, 1695997142.8379233, 
-0.3334171772003174, 0.48306769132614136, 0.5405608905245395, 1695997142.8479354, 
0.2260163426399231, -0.5284183621406555, 0.4299644094054233, 1695997142.8604171, 
0.11044853925704956, 0.3083038330078125, 0.7471971448174877, 1695997142.8678117, 
0.15468430519104004, 0.009488880634307861, 0.5677005775364914, 1695997142.8778343, 
0.3002801537513733, 0.3192497491836548, 0.5845654014772245, 1695997142.887834, 
0.10297894477844238, 0.4220539331436157, 0.6487404333826554, 1695997142.896786, 
-0.07288575172424316, -0.3047633171081543, 0.4630763178126888, 1695997142.9089577, 
-0.16355746984481812, 0.4306682348251343, 0.7089987868395246, 1695997142.9167852, 
-0.21841228008270264, 0.12496155500411987, 0.4955093824574216, 1695997142.9278638, 
-0.27369487285614014, -0.057178795337677, 0.4626066282247312, 1695997142.9397697, 
-0.11519867181777954, 0.4349694848060608, 0.6927109625221239, 1695997142.947683, 
-0.23314088582992554, -0.18105196952819824, 0.5410522171881086, 1695997142.95773, 
0.3092172145843506, 0.5053202509880066, 0.555569781711377, 1695997142.967729, 
0.4876852035522461, 0.5248588919639587, 0.5679935747957526, 1695997142.9776723, 
-0.8073819279670715, -0.06847059726715088, 0.5231232706853406, 1695997142.988661, 
-0.3988429307937622, 0.04982525110244751, 0.6589085523925476, 1695997142.997627, 
0.05921900272369385, -0.1276324987411499, 0.5920115113990145, 1695997143.0076578, 
0.155279278755188, 0.5473106503486633, 0.46561358154710164, 1695997143.020347, 
-0.0043225884437561035, 0.2772228717803955, 0.907007413690212, 1695997143.0267806, 
0.01158064603805542, -0.21615839004516602, 0.534698829654329, 1695997143.0376413, 
-0.4465460777282715, 0.6116158366203308, 0.583827022065818, 1695997143.0475883, 
-0.6100741028785706, 0.2485561966896057, 0.5816548580459007, 1695997143.0575533, 
0.26337140798568726, -0.09537440538406372, 0.49708759677126746, 1695997143.069225, 
0.4472556710243225, -0.021565735340118408, 0.6996624749943658, 1695997143.077546, 
0.5915471315383911, 0.29339826107025146, 0.5811524350557, 1695997143.0875437, 
0.1192021369934082, 0.4458257555961609, 0.4411178829514528, 1695997143.1005037, 
-0.034599483013153076, -0.4440033435821533, 0.798874492520363, 1695997143.1075168, 
-0.6827252507209778, 0.0429348349571228, 0.5631756515050264, 1695997143.117511, 
-0.4180898666381836, 0.8357700109481812, 0.5662252210562913, 1695997143.1274831, 
-0.07205009460449219, 0.14870572090148926, 0.5646483412035262, 1695997143.1374018, 
0.2914901375770569, -0.06652307510375977, 0.5067600357768899, 1695997143.1484854, 
0.15166598558425903, 0.0672958493232727, 0.6327975473391291, 1695997143.1574347, 
-0.31628578901290894, 0.5053261518478394, 0.5670375611986971, 1695997143.1674294, 
0.02946394681930542, 0.23708277940750122, 0.4371196909943617, 1695997143.180345, 
-0.03419774770736694, -0.16718703508377075, 0.7871152424866228, 1695997143.187456, 
-0.3456554412841797, 0.3378332853317261, 0.5640070995320816, 1695997143.197382, 
-0.21811872720718384, -0.0303078293800354, 0.5562567051279155, 1695997143.2074194, 
0.3936271667480469, -0.007220625877380371, 0.5568114896317908, 1695997143.2173243, 
0.09441965818405151, 0.6900221705436707, 0.4707791329031242, 1695997143.2288132, 
-0.02072453498840332, 0.23114198446273804, 0.6350509740273226, 1695997143.2372718, 
-0.05690735578536987, -0.08333754539489746, 0.529114888674701, 1695997143.247489, 
