acc_x, acc_y, angular_z, stamp, 
0.010727226734161377, -0.007873296737670898, -1.3711475083740412e-11, 1695994635.5462348, 
0.010689735412597656, -0.01318448781967163, -1.2653525393625812e-11, 1695994635.5547469, 
-0.0037212371826171875, 0.008308827877044678, -9.18750811697918e-12, 1695994635.5646908, 
-0.027046918869018555, 0.010239362716674805, -1.2050771624459316e-11, 1695994635.574612, 
-0.010861098766326904, 0.00122910737991333, -1.2394693941601975e-11, 1695994635.5845351, 
-0.01800227165222168, 0.0011729598045349121, -1.6476565044230742e-11, 1695994635.5946908, 
0.012551307678222656, -0.002479851245880127, -2.0885263937662514e-11, 1695994635.604565, 
0.012570381164550781, -0.007739126682281494, -1.6614434661796876e-11, 1695994635.6144419, 
-0.016133487224578857, 0.024600446224212646, -1.385190654826675e-11, 1695994635.6269262, 
4.9173831939697266e-05, 0.015487372875213623, -2.427658082846337e-11, 1695994635.6343365, 
-0.010676980018615723, 0.022678911685943604, -1.2676316693615429e-11, 1695994635.644367, 
-0.0016575455665588379, 0.02794104814529419, -1.670490154461619e-11, 1695994635.654423, 
-0.012386858463287354, 0.0151633620262146, -1.3628376695725975e-11, 1695994635.6643248, 
-0.015890061855316162, 0.018734455108642578, -2.9167931056959672e-12, 1695994635.6744418, 
0.03260546922683716, 0.02018195390701294, 4.506969055737976e-12, 1695994635.684342, 
0.018239617347717285, -0.0014295578002929688, 6.709181903649033e-12, 1695994635.6943748, 
-0.0015251636505126953, -0.008770167827606201, 1.0706725046510777e-11, 1695994635.7065654, 
0.01102989912033081, 0.005499780178070068, 2.3461271613867153e-11, 1695994635.7142053, 
0.02713930606842041, 3.0100345611572266e-05, 1.905370739301818e-11, 1695994635.7245357, 
-0.023157179355621338, 0.005434691905975342, 2.293806488345702e-11, 1695994635.7342117, 
-0.017770230770111084, -0.0037263035774230957, 2.5334819256286113e-11, 1695994635.7441998, 
-0.014154613018035889, -0.0002664923667907715, 2.7760756573922094e-11, 1695994635.7548373, 
0.005617260932922363, -0.023689687252044678, 6.371782777108321e-06, 1695994635.7641916, 
-0.012303769588470459, -0.00033777952194213867, 3.389603227944855e-11, 1695994635.7745335, 
-0.001497507095336914, -0.002213418483734131, 3.2297698597821837e-11, 1695994635.7864084, 
0.016467034816741943, 0.008481860160827637, 6.046242354920796e-11, 1695994635.7931197, 
0.028998970985412598, -0.004170119762420654, 3.609350384836329e-11, 1695994635.8032784, 
-0.010516047477722168, -0.02556699514389038, 3.256138505422872e-11, 1695994635.814159, 
-0.014113783836364746, 0.013838648796081543, 3.622811800603702e-11, 1695994635.8240325, 
-0.0015259981155395508, 0.010294854640960693, 3.505288469228027e-11, 1695994635.834285, 
0.0002664923667907715, 0.0047882795333862305, 3.890398444899544e-11, 1695994635.8440554, 
-0.0015215277671813965, 0.004754781723022461, 3.75555158794752e-11, 1695994635.8540785, 
-0.012276768684387207, 0.0010900497436523438, 3.4162993492085e-11, 1695994635.8663013, 
-0.014031767845153809, -0.0007663965225219727, 5.869644992978823e-11, 1695994635.8739808, 
-0.0014271736145019531, -0.0008957386016845703, 5.907632980870028e-06, 1695994635.8840704, 
0.009403467178344727, -0.007838606834411621, 5.0181881901604936e-11, 1695994635.8940551, 
0.0022270679473876953, -0.02230435609817505, 5.024739978723186e-11, 1695994635.9039698, 
0.03094017505645752, 0.0010823607444763184, 4.510908316722202e-11, 1695994635.9144192, 
-0.01756209135055542, 0.004599213600158691, 4.6304394760074966e-11, 1695994635.923931, 
0.003998517990112305, 0.01367807388305664, 4.508075538120417e-11, 1695994635.9339395, 
0.009354054927825928, 0.02248150110244751, 3.450301850517058e-11, 1695994635.9467466, 
0.032654762268066406, -0.009723067283630371, 5.1550580653377976e-11, 1695994635.9539266, 
0.011007845401763916, -0.0045092105865478516, 3.250385783190044e-11, 1695994635.9639673, 
0.0037520527839660645, -0.02061361074447632, 2.598572704354215e-11, 1695994635.9739285, 
8.594989776611328e-05, -0.009836196899414062, 1.5673608783222627e-11, 1695994635.9838648, 
-0.008948922157287598, 0.0009461045265197754, 1.008389274292944e-11, 1695994635.9945605, 
-0.03049224615097046, -0.015054166316986084, 6.30442614070792e-12, 1695994636.0038598, 
-0.025079071521759033, 0.002860844135284424, 1.1464343015244287e-11, 1695994636.0138016, 
-0.032176434993743896, -0.007798373699188232, 1.100384811743338e-11, 1695994636.026565, 
-0.012338757514953613, -0.011429965496063232, 2.955362201052595e-11, 1695994636.0338216, 
-0.0050506591796875, -0.007667422294616699, 2.377424995937259e-11, 1695994636.0437953, 
-0.010340988636016846, 0.0031402111053466797, 2.6115326870198892e-11, 1695994636.053883, 
0.009488880634307861, -0.011217117309570312, 3.04707713916875e-11, 1695994636.0627599, 
0.0005870461463928223, 0.012233436107635498, 2.1215248947746354e-11, 1695994636.0749788, 
0.023960530757904053, 0.015778779983520508, 3.5662629982157497e-11, 1695994636.0827837, 
0.015002191066741943, -0.007404506206512451, 2.5100957121641503e-11, 1695994636.0927658, 
-0.0011553168296813965, -0.00020229816436767578, 1.7621968081223703e-11, 1695994636.1053257, 
-0.010127484798431396, -0.03617572784423828, 2.4056599474872732e-11, 1695994636.113738, 
0.00782841444015503, -0.02362602949142456, 1.685364062897974e-11, 1695994636.122774, 
-0.00470811128616333, 0.0018018484115600586, 7.444533921232554e-12, 1695994636.1338022, 
-0.0064917802810668945, -0.01435774564743042, 5.973750241998691e-13, 1695994636.1437068, 
0.0025054216384887695, 0.012650609016418457, -3.216301673152906e-13, 1695994636.1543658, 
0.006119072437286377, 0.011037170886993408, -4.588747665758719e-12, 1695994636.1637475, 
0.02584528923034668, 0.0021101832389831543, -5.4656793256688856e-12, 1695994636.173734, 
-0.011882603168487549, -0.01756298542022705, -1.3311097510909799e-11, 1695994636.186593, 
0.006066381931304932, -0.006642043590545654, -1.8801429545515297e-11, 1695994636.1937158, 
0.023970484733581543, 0.0005826950073242188, -1.685502927647456e-11, 1695994636.2037215, 
0.02208179235458374, 0.01848626136779785, -1.4073195705976261e-11, 1695994636.2127686, 
0.007627665996551514, 0.004164934158325195, -1.0667760085004461e-11, 1695994636.2236733, 
-0.006820619106292725, 0.004106462001800537, -9.634890096811969e-12, 1695994636.234328, 
0.03439360857009888, -0.008246541023254395, -8.079509873233653e-12, 1695994636.2436783, 
0.00014841556549072266, 0.0006582736968994141, -6.385240846129077e-12, 1695994636.2536962, 
-0.03579980134963989, 0.0008710622787475586, -3.686218841749266e-13, 1695994636.266741, 
-0.016073167324066162, 0.0043836236000061035, -1.76336990559268e-12, 1695994636.273678, 
-0.012495815753936768, 0.0006691813468933105, -8.957894588453452e-13, 1695994636.2836788, 
-0.03398925065994263, 0.0007634758949279785, -2.1812393671888436e-12, 1695994636.293798, 
-0.03568822145462036, -0.0028365254402160645, -9.376143656173783e-12, 1695994636.303649, 
0.0021108388900756836, 0.025804519653320312, -1.0877088255976388e-11, 1695994636.314355, 
0.025514662265777588, 0.025834083557128906, -8.456140436286608e-12, 1695994636.3235676, 
0.016556620597839355, 0.03296303749084473, -1.2093868357767833e-11, 1695994636.3327658, 
0.02372068166732788, 0.018462657928466797, -3.361679201081809e-12, 1695994636.3458965, 
0.027242064476013184, 0.0002735257148742676, -3.435274706161888e-12, 1695994636.3535757, 
-0.01049727201461792, 0.014668166637420654, -1.10910468219416e-12, 1695994636.3636222, 
0.003822147846221924, -0.021413207054138184, 7.934482779380053e-13, 1695994636.373506, 
0.019911229610443115, -0.023328125476837158, 6.502925141156877e-13, 1695994636.3835106, 
-0.003488302230834961, -0.014304161071777344, 1.9497835245328888e-13, 1695994636.3948908, 
-0.028648853302001953, 0.003591001033782959, 2.7996015617780546e-13, 1695994636.4035506, 
0.0018674135208129883, 0.00531536340713501, -9.879382818818738e-13, 1695994636.4135313, 
-0.030406653881072998, 0.007274627685546875, -8.723439107734764e-14, 1695994636.4259238, 
-0.001648545265197754, 0.0017336606979370117, 1.1269874613226695e-12, 1695994636.4335096, 
0.019903123378753662, -0.007296502590179443, 1.189696101129755e-12, 1695994636.4435542, 
0.00552290678024292, 0.015964627265930176, -3.567230394723387e-13, 1695994636.453596, 
0.030624330043792725, 0.008796513080596924, 4.3020564814245396e-13, 1695994636.4635155, 
0.021571040153503418, 0.01417607069015503, 5.5039863599908984e-06, 1695994636.474345, 
0.00532156229019165, -0.01104503870010376, -9.277295639507001e-12, 1695994636.4835062, 
-0.0019456148147583008, -0.018339216709136963, -7.162153828538684e-12, 1695994636.493554, 
-0.019947171211242676, -0.01656210422515869, -1.2005440500559554e-11, 1695994636.5045195, 
-0.016358792781829834, 0.01760697364807129, -1.4128837589614064e-11, 1695994636.5135028, 
-0.014562904834747314, 0.004902243614196777, -1.1825756225661743e-11, 1695994636.5235627, 
-0.016310930252075195, -0.020116209983825684, -1.0953679387317009e-11, 1695994636.5334623, 
-0.019846856594085693, -0.01654362678527832, -4.768854879918393e-12, 1695994636.5435295, 
-0.00900179147720337, -0.009334802627563477, -5.248031435363161e-12, 1695994636.554527, 
0.01977062225341797, -0.00032442808151245117, -4.813414233127924e-13, 1695994636.5634766, 
0.007226705551147461, 0.0015615224838256836, -1.659457806776045e-12, 1695994636.5735013, 
0.02158331871032715, -0.0002117156982421875, -7.930231898593966e-13, 1695994636.5853858, 
0.019751250743865967, 0.012403488159179688, -3.722259567332225e-12, 1695994636.593488, 
0.016094088554382324, -0.009166896343231201, -4.011289747486732e-12, 1695994636.6035168, 
0.005252838134765625, -0.012726843357086182, -4.879906462063896e-12, 1695994636.6134746, 
0.010560989379882812, -0.0055457353591918945, -5.2822049531361e-12, 1695994636.6234722, 
-0.012828528881072998, -0.0036129355430603027, -4.5560903899761406e-12, 1695994636.6347306, 
-0.0003090500831604004, 0.003545105457305908, -5.5645350893305014e-12, 1695994636.6434333, 
-0.025452911853790283, 0.014392852783203125, -2.455631359674239e-12, 1695994636.6534204, 
-0.02003234624862671, -0.028592228889465332, -4.585549923628866e-13, 1695994636.6653206, 
0.0033333301544189453, 0.0037668943405151367, -2.7515839374132504e-12, 1695994636.6734445, 
-0.019979894161224365, -0.01422727108001709, 1.9904305046358218e-12, 1695994636.6834357, 
-0.01988142728805542, -0.006738901138305664, 1.496393255978034e-12, 1695994636.6934373, 
0.008893907070159912, 0.02009028196334839, 1.6389355392701527e-12, 1695994636.7034218, 
0.02864605188369751, 0.018185317516326904, 1.339959405598111e-12, 1695994636.714805, 
0.016066431999206543, 0.01287156343460083, 1.8351625700736567e-12, 1695994636.7234063, 
0.0052852630615234375, 0.014802336692810059, 1.5287457771141928e-12, 1695994636.7336178, 
0.02137535810470581, 0.0073795318603515625, 1.3936655599023775e-12, 1695994636.742804, 
-0.0038189291954040527, -0.0016875267028808594, 1.6706203317254208e-12, 1695994636.7517776, 
0.003321826457977295, -0.014258086681365967, -2.0078265697198925e-12, 1695994636.7627206, 
-0.0039067864418029785, -0.012529551982879639, -1.7720792518009348e-12, 1695994636.772721, 
-0.0362091064453125, -0.001680612564086914, -1.326792402823277e-13, 1695994636.7828455, 
-0.007439374923706055, 0.0037332773208618164, 7.654869538030455e-13, 1695994636.794353, 
0.01054757833480835, -0.008695363998413086, 2.378488873272639e-12, 1695994636.8017592, 
-0.012788593769073486, 0.023458361625671387, 2.8401666185232644e-13, 1695994636.8129, 
-0.007354676723480225, 0.0055342912673950195, 6.086993727728046e-13, 1695994636.8226948, 
-0.0001361370086669922, 0.0001035928726196289, -3.526792023171895e-13, 1695994636.8326366, 
-0.003691375255584717, -0.012490928173065186, -4.3820914293298887e-13, 1695994636.8428895, 
0.01608121395111084, 0.00548863410949707, -4.531116862206329e-13, 1695994636.8526747, 
-7.325410842895508e-05, 0.01801389455795288, -1.2079316652420191e-12, 1695994636.8617797, 
0.00530773401260376, -7.224082946777344e-05, -7.762950735203065e-13, 1695994636.8743076, 
0.019651472568511963, 0.008877694606781006, -2.3124288143218663e-12, 1695994636.8825486, 
-0.009094536304473877, -0.018055498600006104, -1.8345259085265942e-12, 1695994636.8928177, 
-0.016257286071777344, -0.025144755840301514, -8.767871389933669e-13, 1695994636.9026353, 
-0.03237307071685791, 0.017849504947662354, -1.2331263562757453e-12, 1695994636.9125574, 
-0.0286787748336792, 0.0017091035842895508, 9.649450815705687e-13, 1695994636.922597, 
-0.019589662551879883, -0.0073732733726501465, 2.6754726640197723e-12, 1695994636.9325275, 
-0.0050850510597229, 0.010728657245635986, 4.618519057105744e-12, 1695994636.9425294, 
0.00040733814239501953, 0.01244586706161499, 5.489712521510751e-12, 1695994636.9544349, 
0.005895376205444336, 0.03219175338745117, 1.0749448043688982e-11, 1695994636.9625926, 
0.009564578533172607, 0.03032928705215454, 1.7508613845507697e-11, 1695994636.9725075, 
0.007816076278686523, -0.002168118953704834, 2.4021224358606665e-11, 1695994636.982468, 
-0.002911686897277832, -0.018457770347595215, 2.8126920458309945e-11, 1695994636.9926229, 
-0.011827230453491211, -0.011352300643920898, 6.053442026982801e-06, 1695994637.0024693, 
0.0008093714714050293, -0.0006018280982971191, 6.006491770877635e-06, 1695994637.0123928, 
0.0008718967437744141, -0.005963385105133057, 4.202789447666827e-11, 1695994637.0223596, 
-0.0008744001388549805, 0.010125875473022461, 3.7151291498993814e-11, 1695994637.0348217, 
-0.022331595420837402, -0.032849252223968506, 6.789974249043863e-11, 1695994637.0422792, 
-0.013260424137115479, 0.0030272603034973145, 5.2167488601059984e-11, 1695994637.0525637, 
0.0012007951736450195, -0.004098832607269287, 5.658853450989909e-11, 1695994637.0623555, 
-0.016658246517181396, 0.010231077671051025, 6.289810987247451e-11, 1695994637.072315, 
0.0013963580131530762, 0.02992147207260132, 6.095178786840166e-11, 1695994637.082815, 
0.017623484134674072, 0.00830984115600586, 8.357740451646203e-11, 1695994637.0922432, 
-0.007444024085998535, -0.02395719289779663, 8.332790141467004e-11, 1695994637.1023688, 
0.005160510540008545, 0.009917020797729492, 8.075508713339272e-11, 1695994637.1134572, 
0.026732981204986572, 0.015317559242248535, 1.1876781267789958e-10, 1695994637.12118, 
0.008780241012573242, -0.004392087459564209, 8.411096732450823e-11, 1695994637.1321328, 
0.0213090181350708, 0.009825646877288818, 9.626948766149822e-11, 1695994637.1422002, 
0.010502338409423828, -0.01878732442855835, 9.207594062612319e-11, 1695994637.1521418, 
-0.0021224021911621094, -0.013512670993804932, 7.590105801504049e-11, 1695994637.1629932, 
-0.005735635757446289, 0.015266656875610352, 9.314701858488811e-11, 1695994637.172102, 
-0.0021788477897644043, -0.00820469856262207, 8.302107314254719e-11, 1695994637.182143, 
-0.0075797438621521, -0.02974599599838257, 5.978434699883315e-11, 1695994637.1948843, 
-0.00578075647354126, 0.011611998081207275, 8.301850926099188e-06, 1695994637.202064, 
0.006794571876525879, -0.004409730434417725, 5.908184862595119e-06, 1695994637.2121527, 
-0.012956678867340088, -0.00979602336883545, 6.008409441222382e-06, 1695994637.222073, 
-0.012935161590576172, -0.0008394718170166016, 6.306859315110324e-11, 1695994637.232053, 
0.024776220321655273, 0.015373408794403076, 5.5139738586267316e-11, 1695994637.2425065, 
0.022927939891815186, -0.01699650287628174, 5.6643136939228455e-11, 1695994637.2519834, 
0.021067798137664795, -0.006108105182647705, 4.534845082803423e-11, 1695994637.2620277, 
0.02455770969390869, -0.025782465934753418, 2.4589712239263547e-11, 1695994637.2743523, 
-0.00785839557647705, -0.011352479457855225, 2.9118655138778693e-11, 1695994637.282004, 
-0.02407318353652954, -0.00953596830368042, 1.7199484019533475e-11, 1695994637.291949, 
-0.009718239307403564, 0.0032155513763427734, 9.158191760190575e-12, 1695994637.3019457, 
0.006419777870178223, -0.0020453929901123047, 6.3878277262068e-12, 1695994637.3119037, 
0.008172154426574707, -0.007366001605987549, 5.142385649360093e-12, 1695994637.322804, 
-0.016999125480651855, -0.012771189212799072, -2.968629002568564e-12, 1695994637.331955, 
-0.008025646209716797, -0.005546092987060547, -6.332466997652557e-12, 1695994637.341897, 
0.020687639713287354, 0.014344632625579834, -7.387013318210229e-12, 1695994637.3548079, 
-0.004472792148590088, 0.014452099800109863, -9.67168234806463e-12, 1695994637.361826, 
0.018830418586730957, 0.010907530784606934, -6.537639829738972e-12, 1695994637.3721037, 
0.02054131031036377, -0.012490570545196533, -6.5521853640096906e-12, 1695994637.3818069, 
0.015060901641845703, -0.019608676433563232, -3.325117353813766e-12, 1695994637.3918066, 
0.0024074316024780273, -0.0015115141868591309, -6.07026316918097e-12, 1695994637.4030545, 
-0.015617966651916504, -0.02302008867263794, -2.1024354012487756e-12, 1695994637.4117115, 
-0.015653133392333984, -0.004998385906219482, -8.095485626697485e-13, 1695994637.4217324, 
-0.006698250770568848, 0.027320146560668945, -2.569893630438702e-12, 1695994637.4344146, 
0.0004755258560180664, -0.012060046195983887, -1.156292321320456e-12, 1695994637.4417174, 
-0.0031176209449768066, -0.004707396030426025, -9.268368044825886e-13, 1695994637.451745, 
0.0040392279624938965, 0.023963332176208496, 4.6131272562454695e-12, 1695994637.4617395, 
0.00582200288772583, 0.020467400550842285, 3.660721179766577e-12, 1695994637.4716969, 
0.009299933910369873, 0.02300882339477539, 0.0, 1695994637.48345, 
0.014738917350769043, 0.008742690086364746, 0.0004367695522106059, 1695994637.491638, 
0.025621235370635986, -0.018004894256591797, 0.00017896796561567735, 1695994637.5016286, 
0.02731192111968994, -0.010755062103271484, -0.0007063373102012164, 1695994637.5144553, 
0.12224513292312622, 0.01637089252471924, 0.002472749884828098, 1695994637.5215662, 
0.28509634733200073, 0.090151846408844, 0.019281978957608876, 1695994637.5315664, 
0.5243331789970398, 0.2772682309150696, 0.06322715677066117, 1695994637.5416043, 
1.0228973627090454, 0.4010047912597656, 0.135309466180281, 1695994637.5515664, 
1.4954168796539307, 0.3088518977165222, 0.18465347691179973, 1695994637.562555, 
1.6606796979904175, -0.002627551555633545, 0.24358984378301268, 1695994637.5714974, 
1.299707293510437, -0.2912473678588867, 0.1712719653520036, 1695994637.581545, 
1.3324435949325562, -0.03109610080718994, 0.09833658314492018, 1695994637.5944526, 
1.6302889585494995, 0.2608810067176819, 0.17461718511904747, 1695994637.6014504, 
1.383179783821106, -0.022771894931793213, 0.12866664520207058, 1695994637.6114938, 
0.8667506575584412, -0.4404633641242981, 0.12336088534685065, 1695994637.6215358, 
0.8789817094802856, -0.1583423614501953, 0.12055628751089256, 1695994637.6314657, 
0.7602356672286987, 0.506460964679718, 0.11148109101133001, 1695994637.642864, 
0.485603392124176, 0.3731028437614441, 0.15787384264133938, 1695994637.651407, 
0.4745371341705322, -0.26987338066101074, 0.13854856738632088, 1695994637.6614392, 
0.5007280707359314, 0.13442492485046387, 0.11111716020856591, 1695994637.674376, 
0.5728544592857361, 0.30655884742736816, 0.21535070339416826, 1695994637.6813288, 
0.7981855869293213, -0.08130049705505371, 0.16283006549262208, 1695994637.6913502, 
1.063351035118103, -0.21932637691497803, 0.1827310949663979, 1695994637.7015061, 
0.8430919051170349, 0.05118715763092041, 0.21035988676310202, 1695994637.711333, 
0.6984121203422546, 0.047485172748565674, 0.18903610414678232, 1695994637.7225559, 
0.6217092275619507, 0.04566687345504761, 0.24048455294256152, 1695994637.7312644, 
0.6394057869911194, 0.22888845205307007, 0.2167444116255365, 1695994637.741296, 
0.8070768117904663, 0.28558528423309326, 0.18439700908779688, 1695994637.7540677, 
0.8105229735374451, 0.01571059226989746, 0.40612070292098246, 1695994637.7602444, 
0.6093064546585083, -0.2109447717666626, 0.2374064061992626, 1695994637.771209, 
0.6561040282249451, 0.11665254831314087, 0.2611094922798322, 1695994637.7811992, 
0.6519086360931396, 0.4624113440513611, 0.2591456417996467, 1695994637.791185, 
0.750636100769043, 0.010340869426727295, 0.22510618791639783, 1695994637.803098, 
0.6321404576301575, -0.4648398160934448, 0.34810112372201557, 1695994637.8111393, 
1.113844871520996, 0.06078118085861206, 0.27233556039408324, 1695994637.8214169, 
1.2505332231521606, 0.6721742153167725, 0.22644253523681682, 1695994637.8336349, 
0.7640761137008667, 0.15646499395370483, 0.39334803291719783, 1695994637.8411286, 
0.5262587070465088, -0.45150482654571533, 0.3274777566320633, 1695994637.8511229, 
0.9802654981613159, 0.12163084745407104, 0.3359913957398201, 1695994637.8612003, 
1.258326768875122, 0.5153557062149048, 0.3225127137948215, 1695994637.871073, 
0.7793720960617065, 0.1157274842262268, 0.26170440287593705, 1695994637.8825872, 
0.5010052919387817, -0.085080087184906, 0.3656122045263635, 1695994637.8911192, 
0.9455893635749817, 0.22517269849777222, 0.3385315414971185, 1695994637.9010425, 
0.7810063362121582, 0.23921293020248413, 0.2762563661241066, 1695994637.9135394, 
0.013604164123535156, 0.4138869643211365, 0.46324530270350245, 1695994637.9210095, 
0.2208893895149231, 0.26699334383010864, 0.34984114083541584, 1695994637.931394, 
0.6053575277328491, -0.2948341369628906, 0.4178821859380691, 1695994637.9409742, 
1.0993119478225708, 0.25364571809768677, 0.41616298816553005, 1695994637.9511993, 
1.114333987236023, 0.38246625661849976, 0.3783856204179106, 1695994637.9625306, 
0.830803394317627, -0.3980404734611511, 0.49514661729534515, 1695994637.970906, 
0.7327049970626831, -0.2624244689941406, 0.383254487059579, 1695994637.9809136, 
0.5798864364624023, 0.5530330538749695, 0.33584620176311947, 1695994638.0011165, 
-0.23431426286697388, 0.3170652389526367, 0.29033902602130984, 1695994638.0109437, 
0.12286758422851562, -0.04521125555038452, 0.26396359280464815, 1695994638.0208871, 
0.5150247812271118, 0.25622791051864624, 0.2615304778658281, 1695994638.030829, 
0.5196163058280945, 0.10099256038665771, 0.23106851457926667, 1695994638.0426548, 
-0.24205631017684937, 0.005192220211029053, 0.3617606433361397, 1695994638.0508108, 
-0.6019448041915894, -0.0016167163848876953, 0.31358093490495514, 1695994638.0608165, 
-0.05745154619216919, -0.43620240688323975, 0.3689468526725425, 1695994638.0697892, 
-0.0885424017906189, -0.002979278564453125, 0.3035480063016379, 1695994638.080742, 
0.23362398147583008, 0.22023266553878784, 0.3121539878369523, 1695994638.0909297, 
0.6052755117416382, -0.17587220668792725, 0.3485103937043965, 1695994638.0997622, 
0.27608704566955566, 0.6480685472488403, 0.2684153160608281, 1695994638.1108842, 
-0.11477673053741455, 0.34289872646331787, 0.25179788070970727, 1695994638.1230037, 
-0.21900242567062378, 0.35520726442337036, 0.4289081827309428, 1695994638.1306858, 
-0.1806659698486328, 0.49578148126602173, 0.33586157163232616, 1695994638.140847, 
-0.6524354219436646, 0.01375669240951538, 0.3512255269831116, 1695994638.1506622, 
-0.04436016082763672, 0.10271108150482178, 0.37277868521543556, 1695994638.15976, 
0.02089083194732666, -0.1631069779396057, 0.2983805146109306, 1695994638.170611, 
0.39993202686309814, -0.18058353662490845, 0.3213107873600414, 1695994638.1806204, 
0.2230721116065979, 0.46456843614578247, 0.31847824712937656, 1695994638.1907346, 
-0.1033487319946289, 0.06600785255432129, 0.272011417948658, 1695994638.2028272, 
-0.3778429627418518, 0.20759975910186768, 0.48838889889487297, 1695994638.209792, 
-0.3107897639274597, -0.1509413719177246, 0.316359836272385, 1695994638.220667, 
0.0817255973815918, 0.35609787702560425, 0.34225212101252833, 1695994638.2306266, 
-0.10042917728424072, 0.6983909010887146, 0.33901626119444883, 1695994638.2405238, 
-0.14185768365859985, -0.7743138670921326, 0.3272786685629261, 1695994638.2509882, 
-0.3096604347229004, -0.016111016273498535, 0.36722555581747934, 1695994638.2605054, 
-0.13761436939239502, 0.5321230292320251, 0.3448204801543176, 1695994638.2705007, 
0.051308631896972656, 0.044771015644073486, 0.2792657391811444, 1695994638.282625, 
0.5199012756347656, 0.3579401969909668, 0.42437991687957666, 1695994638.290508, 
0.7264789938926697, -0.17201250791549683, 0.3633910267994461, 1695994638.2997963, 
0.12605220079421997, 0.3565117120742798, 0.31379766559492134, 1695994638.3105419, 
-0.059871792793273926, 0.17026692628860474, 0.32779157266612435, 1695994638.320561, 
-0.20647364854812622, -0.19916290044784546, 0.3272085526868354, 1695994638.330585, 
-0.3205960988998413, 0.4522256851196289, 0.32993989329463586, 1695994638.340467, 
0.27021270990371704, 0.6034455895423889, 0.313571790291395, 1695994638.3507211, 
0.38984227180480957, 0.2185351848602295, 0.27738083540973035, 1695994638.3625488, 
0.23633432388305664, -0.37235283851623535, 0.44710726950780655, 1695994638.370467, 
-0.3022236227989197, 0.21513497829437256, 0.38269355346741196, 1695994638.3804245, 
-0.30691128969192505, -0.05366313457489014, 0.38076698902683365, 1695994638.3905902, 
0.012729465961456299, 0.4575122594833374, 0.3902183457569259, 1695994638.4004018, 
-0.3262275457382202, 0.6716218590736389, 0.36783060306417437, 1695994638.4106271, 
0.10566020011901855, -0.6690444350242615, 0.4221277321583771, 1695994638.4192846, 
-0.06378602981567383, -0.15573811531066895, 0.3662191323903346, 1695994638.429262, 
0.058164358139038086, 0.45321768522262573, 0.2640212435566907, 1695994638.4430556, 
-0.2186218500137329, 0.7929435968399048, 0.49718562516310194, 1695994638.4501767, 
-0.0812574028968811, 0.1684362292289734, 0.3445533691485117, 1695994638.4602056, 
-0.03376507759094238, -0.37185347080230713, 0.3429240555286632, 1695994638.470298, 
0.24089068174362183, 0.29344505071640015, 0.36461991872821975, 1695994638.4801865, 
0.7191118001937866, -0.09215784072875977, 0.3493894195228612, 1695994638.4906883, 
0.06395703554153442, -0.21300947666168213, 0.381173535261821, 1695994638.5001538, 
-0.18478679656982422, 0.31241530179977417, 0.35449624649933686, 1695994638.5101604, 
-0.171786367893219, -0.0670972466468811, 0.27173044003182767, 1695994638.5230548, 
-0.004871070384979248, 0.7194244861602783, 0.48762928331733685, 1695994638.5300891, 
-0.24323195219039917, 0.452014684677124, 0.33016749249613436, 1695994638.5400965, 
0.17004072666168213, -0.2317851185798645, 0.32743191470656613, 1695994638.5501444, 
0.212560772895813, 0.17702347040176392, 0.3389427049184585, 1695994638.5601125, 
-0.03684967756271362, 0.22567963600158691, 0.3136918891623786, 1695994638.5710344, 
-0.19256997108459473, -0.044039249420166016, 0.38372719971982133, 1695994638.5800443, 
-0.26104605197906494, -0.36426329612731934, 0.3491637707126157, 1695994638.5900533, 
0.0072487592697143555, 0.7237706184387207, 0.2769515973325423, 1695994638.602867, 
0.0072487592697143555, 0.7237706184387207, 0.4891399547364931, 1695994638.6100368, 
0.5302233099937439, -0.4507686495780945, 0.3328091649121024, 1695994638.620106, 
-0.012420892715454102, -0.220087468624115, 0.32426919936195564, 1695994638.6300395, 
-0.3146591782569885, 0.15883517265319824, 0.31475101761932306, 1695994638.6399672, 
-0.44443923234939575, 0.054181456565856934, 0.27899859173321234, 1695994638.6510084, 
-0.26190632581710815, 0.9819254875183105, 0.34072842605193326, 1695994638.659958, 
0.042090654373168945, 0.1255754828453064, 0.31069549727419876, 1695994638.6699858, 
0.5370273590087891, -0.5036831498146057, 0.2669732107719587, 1695994638.682681, 
1.0396201610565186, 0.2918652296066284, 0.49729344326904606, 1695994638.6899323, 
-0.013799667358398438, 0.26401984691619873, 0.36017660403037904, 1695994638.69992, 
-0.37124210596084595, 0.07605940103530884, 0.3559199555116424, 1695994638.709961, 
-0.21977531909942627, -0.3980950117111206, 0.35487499503494396, 1695994638.7199407, 
-0.3194293975830078, 0.6978260278701782, 0.31646754490080226, 1695994638.7309391, 
0.23976576328277588, 0.797595202922821, 0.3748779777210213, 1695994638.739872, 
0.3666161298751831, -0.5717234015464783, 0.31381674161440487, 1695994638.7498739, 
-0.20361405611038208, 0.06705176830291748, 0.22885615679395324, 1695994638.7633317, 
-0.45745110511779785, 0.28066426515579224, 0.5725387666465747, 1695994638.768811, 
0.2970213294029236, 0.1709592342376709, 0.28321454148972547, 1695994638.7800407, 
-0.228035569190979, 0.47563832998275757, 0.32094909280810985, 1695994638.7898688, 
0.12476599216461182, -0.48315948247909546, 0.31867820067425295, 1695994638.799738, 
0.4376734495162964, 0.21293461322784424, 0.2880624134308261, 1695994638.81093, 
0.1922907829284668, 0.36290091276168823, 0.4027414427523933, 1695994638.818929, 
-0.24973618984222412, -0.038558900356292725, 0.32508694339554894, 1695994638.8288646, 
-0.3696666359901428, 0.07853209972381592, 0.23856669665863747, 1695994638.8426104, 
-0.46292340755462646, -0.019680261611938477, 0.45837417929805213, 1695994638.8496497, 
-0.16300952434539795, 0.6398509740829468, 0.3188255086361458, 1695994638.8599844, 
0.6356089115142822, 0.5008705854415894, 0.3545322296131643, 1695994638.8696911, 
0.24172765016555786, -0.31046783924102783, 0.36456840163256626, 1695994638.8795984, 
0.19122320413589478, 0.13304942846298218, 0.32958786229233966, 1695994638.891178, 
0.0690423846244812, 0.12359851598739624, 0.4624477814075065, 1695994638.899565, 
-0.11361163854598999, 0.3451070189476013, 0.3837050970242402, 1695994638.909586, 
-0.17222440242767334, 0.33445441722869873, 0.3054280234827355, 1695994638.9220688, 
-0.40174543857574463, -0.1379626989364624, 0.5088993142443298, 1695994638.9295375, 
-0.050935208797454834, 0.3775506019592285, 0.37587270607970724, 1695994638.9395525, 
0.19356298446655273, 0.10438621044158936, 0.36209340204270185, 1695994638.9495766, 
0.10144180059432983, 0.38185542821884155, 0.3433838999400129, 1695994638.9596956, 
0.14567488431930542, 0.3100757598876953, 0.30850793215403155, 1695994638.97064, 
-0.10133320093154907, -0.35599708557128906, 0.3838920599302243, 1695994638.9794724, 
-0.543448269367218, 0.04246532917022705, 0.33924156866924754, 1695994638.98972, 
-0.07900828123092651, -0.06231123208999634, 0.2827040330467844, 1695994639.0022306, 
-0.07900828123092651, -0.06231123208999634, 0.49954563345074465, 1695994639.0094404, 
0.2611657381057739, 0.26919299364089966, 0.3643840632632123, 1695994639.019458, 
0.19264531135559082, 0.5112725496292114, 0.36706762002374993, 1695994639.0294828, 
-0.2531088590621948, 0.5339901447296143, 0.36355495037264396, 1695994639.0396335, 
-0.3785214424133301, -0.4335631728172302, 0.3398061520749812, 1695994639.0506785, 
-0.0507543683052063, 0.04062187671661377, 0.43858189654474994, 1695994639.0593274, 
0.3295341730117798, 0.8265396952629089, 0.36756786260692204, 1695994639.0693371, 
0.229053795337677, -0.2514722943305969, 0.28310022903973253, 1695994639.0818124, 
0.730348527431488, -0.21493995189666748, 0.5340769400596708, 1695994639.0883029, 
0.3057997226715088, 0.26325756311416626, 0.347835935820585, 1695994639.098293, 
-0.2866963744163513, 0.052159786224365234, 0.32332697650122083, 1695994639.10925, 
0.09771054983139038, 0.29888755083084106, 0.344829471609357, 1695994639.1192918, 
-0.09687715768814087, 0.0955650806427002, 0.3159943153331877, 1695994639.12975, 
-0.06567877531051636, 0.020811915397644043, 0.3481705415645359, 1695994639.1392114, 
0.1986382007598877, -0.13405388593673706, 0.32715477525012315, 1695994639.1492944, 
0.09672081470489502, 0.1370307207107544, 0.2672823754709329, 1695994639.1616712, 
-0.3953295946121216, 0.5553871989250183, 0.44086329616695563, 1695994639.1691864, 
-0.2576891779899597, -0.2698858976364136, 0.33390379182346963, 1695994639.1792388, 
0.02023470401763916, 0.20870345830917358, 0.3573714249726254, 1695994639.1891267, 
0.08810502290725708, 0.4398242235183716, 0.37128134693232817, 1695994639.1990893, 
0.22694236040115356, -0.23456025123596191, 0.3071194823254578, 1695994639.211425, 
0.28444796800613403, 0.4120584726333618, 0.4841117743299332, 1695994639.2192419, 
-0.5055635571479797, -0.07293403148651123, 0.37699518635299384, 1695994639.2291398, 
-0.26015233993530273, 0.32529211044311523, 0.3676349360887936, 1695994639.239149, 
0.06090438365936279, 0.44610077142715454, 0.35472054350378995, 1695994639.249081, 
-0.11917924880981445, -0.5874512195587158, 0.346037039314414, 1695994639.2590814, 
0.6157234907150269, 0.13265526294708252, 0.3492318785582314, 1695994639.2690396, 
0.14472174644470215, 0.26336348056793213, 0.34361500888091057, 1695994639.2790215, 
0.32563304901123047, 0.46887195110321045, 0.3262336142849168, 1695994639.289777, 
-0.14088022708892822, 0.25765228271484375, 0.3887985063929479, 1695994639.2989538, 
0.08131664991378784, -0.6698828339576721, 0.35953532951034656, 1695994639.3089774, 
0.4034045338630676, 0.4921758770942688, 0.3633354435079944, 1695994639.3189888, 
-0.28211092948913574, 0.5223001837730408, 0.3621066297449124, 1695994639.328955, 
-0.030286014080047607, -0.16752475500106812, 0.36052204145990313, 1695994639.3389804, 
-0.580505907535553, 0.09162116050720215, 0.3571169560689207, 1695994639.3489013, 
-0.06068044900894165, -0.19872307777404785, 0.330458833357712, 1695994639.3590178, 
0.40845590829849243, 0.9757190346717834, 0.2933555909864006, 1695994639.3697803, 
0.7585868835449219, 0.6746954321861267, 0.3443585390886425, 1695994639.3788323, 
-0.39712679386138916, -0.48823779821395874, 0.33249237926559966, 1695994639.3888588, 
-0.6192811727523804, -0.1269446611404419, 0.35993653861801045, 1695994639.398837, 
0.12982678413391113, 0.0030671358108520508, 0.3700171608842039, 1695994639.40882, 
-0.08033663034439087, 0.6133517622947693, 0.3694676622295263, 1695994639.4189348, 
0.3669446110725403, -0.12380987405776978, 0.37581653477051746, 1695994639.4287934, 
0.06654751300811768, -0.4499337673187256, 0.3709605835590163, 1695994639.4387991, 
0.29537761211395264, 0.39756327867507935, 0.3081834041515885, 1695994639.4507208, 
-0.13304364681243896, 0.39111626148223877, 0.4962376553874326, 1695994639.457765, 
0.07701575756072998, 0.5978400707244873, 0.32824912992809513, 1695994639.4677684, 
-0.13141906261444092, -0.10280787944793701, 0.2965878584396788, 1695994639.478731, 
0.27365177869796753, -0.3887585997581482, 0.3382393241018714, 1695994639.4887135, 
0.8421578407287598, 0.6061396598815918, 0.3702596932752214, 1695994639.4977505, 
-0.1602020263671875, -0.32146596908569336, 0.29955057733438356, 1695994639.5086956, 
-0.11437630653381348, -0.2548733353614807, 0.33724338628763234, 1695994639.5187037, 
-0.35662758350372314, 0.12215113639831543, 0.27525405186593244, 1695994639.5311418, 
-0.39337068796157837, 0.46781986951828003, 0.45674300319460165, 1695994639.5386453, 
-0.3577670454978943, 0.5604156851768494, 0.333389271070294, 1695994639.5488844, 
0.28735607862472534, -0.04409325122833252, 0.35248067997900534, 1695994639.5586882, 
0.1920146942138672, 0.1349736452102661, 0.36210430624838386, 1695994639.5685887, 
-0.013359427452087402, 0.4347476363182068, 0.3575743627629026, 1695994639.5789099, 
-0.21711069345474243, 0.2688993215560913, 0.3830080208279958, 1695994639.5885623, 
-0.5485159158706665, 0.3185916543006897, 0.36730000922827355, 1695994639.5985723, 
-0.48926103115081787, -0.5190191864967346, 0.30685948473173746, 1695994639.6108177, 
0.003264188766479492, 0.1736559271812439, 0.49139245847909835, 1695994639.6185539, 
0.5114383101463318, 0.48908287286758423, 0.377780736751459, 1695994639.6285586, 
0.04642552137374878, -0.08472675085067749, 0.3791842343519111, 1695994639.6386368, 
-0.27189767360687256, 0.3222041726112366, 0.38739120134449195, 1695994639.6485653, 
-0.7597936987876892, 0.006316959857940674, 0.36099430031336277, 1695994639.6593077, 
-0.15157169103622437, -0.13689476251602173, 0.42334016563172117, 1695994639.668435, 
0.3707176446914673, 0.23714226484298706, 0.3734216558655734, 1695994639.6784651, 
0.45196157693862915, -0.014549732208251953, 0.292029598215009, 1695994639.6910884, 
1.1273127794265747, 0.6189094185829163, 0.49539735034500987, 1695994639.6984828, 
-0.0061193108558654785, 0.029628634452819824, 0.36676613946615794, 1695994639.7085052, 
0.19701623916625977, 0.06827050447463989, 0.37521379091097434, 1695994639.7184932, 
-0.33660173416137695, -0.024364888668060303, 0.37524206167728424, 1695994639.7284958, 
0.2242048978805542, 0.9731998443603516, 0.36803837987312715, 1695994639.7386272, 
-0.10248273611068726, 0.06043970584869385, 0.3612408103247289, 1695994639.7485318, 
0.8948625922203064, -0.6578189134597778, 0.3318755528871867, 1695994639.7586699, 
0.12470519542694092, 0.6619345545768738, 0.2652082391713621, 1695994639.771072, 
0.030413448810577393, 0.26854056119918823, 0.44523486812492136, 1695994639.7784743, 
-0.3785029649734497, 0.42232292890548706, 0.3758842318698416, 1695994639.7873292, 
-0.39559125900268555, -0.06338632106781006, 0.30351429446418665, 1695994639.7982798, 
-0.014324605464935303, -0.36743855476379395, 0.3218519555308441, 1695994639.8088098, 
-0.016486644744873047, 0.24388909339904785, 0.4002271212804005, 1695994639.8177533, 
0.41599082946777344, 0.04850935935974121, 0.33386018632279024, 1695994639.828635, 
-0.38156503438949585, 0.24323111772537231, 0.36334864454893245, 1695994639.8386598, 
-0.5298059582710266, -0.17783844470977783, 0.2897617564714733, 1695994639.851265, 
-0.3295673131942749, 0.09080135822296143, 0.49026196214393636, 1695994639.8586447, 
0.3877382278442383, 1.0020396709442139, 0.35785613470905214, 1695994639.8686278, 
0.8425045013427734, -0.20576071739196777, 0.35166967291461426, 1695994639.8786223, 
0.8043244481086731, -0.04445534944534302, 0.3469415274529391, 1695994639.888701, 
-0.07427680492401123, 0.39488476514816284, 0.3474175516839536, 1695994639.8987002, 
-0.2541196942329407, -0.24590730667114258, 0.3451361478180078, 1695994639.90867, 
0.012872040271759033, 0.19463932514190674, 0.3469818906318906, 1695994639.9186804, 
-0.7100457549095154, 0.051735520362854004, 0.286707475647574, 1695994639.9308825, 
-0.40188854932785034, -0.0025231242179870605, 0.45497000065931364, 1695994639.9386244, 
0.2932557463645935, 0.04862719774246216, 0.355614532493803, 1695994639.948612, 
0.5614925622940063, 0.25846266746520996, 0.34208419540333096, 1695994639.9586055, 
0.26456648111343384, 0.45047909021377563, 0.3247092692242811, 1695994639.9686573, 
-0.008019030094146729, -0.29393380880355835, 0.30526946978998154, 1695994639.97898, 
-0.12587225437164307, 0.2809131145477295, 0.32723476199929324, 1695994639.9885795, 
-0.595187783241272, 0.5474675893783569, 0.31545875236078885, 1695994639.9985533, 
0.006237328052520752, -0.5874452590942383, 0.2589003871949597, 1695994640.010859, 
0.42228734493255615, 0.014083564281463623, 0.4337863668401496, 1695994640.018573, 
0.06774437427520752, 0.20559221506118774, 0.34701675011364985, 1695994640.0285857, 
0.09110087156295776, 0.24873965978622437, 0.34707745043652405, 1695994640.038634, 
-0.10734683275222778, 0.2807333469390869, 0.33901394925538414, 1695994640.0486288, 
-0.19905775785446167, -0.09360116720199585, 0.3327062883525958, 1695994640.0585473, 
-0.05842280387878418, 0.16028714179992676, 0.33010271221611315, 1695994640.068556, 
0.22693687677383423, 0.3133082985877991, 0.3227568758542825, 1695994640.0786018, 
0.3349827527999878, 0.317624568939209, 0.2841336624274345, 1695994640.089753, 
0.045979857444763184, 0.18083417415618896, 0.3968983106460574, 1695994640.097852, 
-0.08479785919189453, -0.2955179214477539, 0.3357397459471025, 1695994640.1078808, 
-0.45504629611968994, 0.38613325357437134, 0.39298423816967426, 1695994640.1167858, 
-0.21902191638946533, 0.4523850083351135, 0.3087035305949343, 1695994640.128145, 
0.15924954414367676, -0.11038762331008911, 0.3614412968850143, 1695994640.1377487, 
0.4692368507385254, 0.07974761724472046, 0.3423526111631572, 1695994640.1477323, 
-0.061939120292663574, -0.19629132747650146, 0.3763856221741601, 1695994640.156757, 
0.043261051177978516, 0.3843234181404114, 0.24424098780409445, 1695994640.1707082, 
-0.15157407522201538, 0.3386755585670471, 0.4765410521754822, 1695994640.177727, 
-0.1918928623199463, -0.2714155912399292, 0.3273743394777901, 1695994640.187749, 
0.0858413577079773, 0.5248884558677673, 0.33634893581695224, 1695994640.197663, 
0.04358285665512085, 0.3368104100227356, 0.33661615934969147, 1695994640.2077262, 
0.06894105672836304, -0.14860570430755615, 0.3110456676551209, 1695994640.2188866, 
-0.5369623303413391, -0.06604057550430298, 0.40285573910592554, 1695994640.2276893, 
-0.130740225315094, -0.03237760066986084, 0.35779860590004825, 1695994640.2376573, 
0.03403586149215698, 0.9273930191993713, 0.27670921834125556, 1695994640.2504, 
0.3003807067871094, -0.14384496212005615, 0.45568104156154593, 1695994640.2578754, 
0.04307740926742554, -0.1061931848526001, 0.358337999721351, 1695994640.2676198, 
-0.18734508752822876, 0.19385361671447754, 0.3660802415505643, 1695994640.2776003, 
0.8809086084365845, -0.2588525414466858, 0.3688405879569814, 1695994640.2876222, 
0.5456589460372925, 0.8506420850753784, 0.32206912668776105, 1695994640.2989817, 
-0.15776973962783813, 0.022782862186431885, 0.41554040564579475, 1695994640.3075097, 
-0.14566010236740112, -0.4983619451522827, 0.3840642588561898, 1695994640.3167765, 
-0.18202579021453857, 0.7094178199768066, 0.27844084385893403, 1695994640.3297386, 
-0.5267112255096436, -0.06694960594177246, 0.46558989585731964, 1695994640.3374615, 
-0.08800303936004639, -0.12036353349685669, 0.36298074792868495, 1695994640.3475192, 
-0.0580134391784668, 0.12310683727264404, 0.3637824772768815, 1695994640.3574708, 
0.18977731466293335, 0.21582847833633423, 0.35667814948244575, 1695994640.3674989, 
0.5263354182243347, 0.5158263444900513, 0.321889323318319, 1695994640.3785553, 
0.2131780982017517, -0.21952897310256958, 0.39398474742454026, 1695994640.3874335, 
-0.4076407551765442, 0.36573415994644165, 0.3445721955529124, 1695994640.397707, 
-0.4845507740974426, 0.15534275770187378, 0.2923980131199355, 1695994640.4099271, 
0.1658860445022583, -0.1900252103805542, 0.558244237042398, 1695994640.4163778, 
-0.1993776559829712, 0.4431781768798828, 0.37073820675014285, 1695994640.426384, 
0.005825996398925781, -0.4416520595550537, 0.35062787594118633, 1695994640.4373226, 
0.2609943151473999, 0.005464673042297363, 0.38296354084966827, 1695994640.4475684, 
0.11890524625778198, 0.7673715949058533, 0.357545353150637, 1695994640.4585302, 
-0.18496203422546387, 0.0986776351928711, 0.43821152949515546, 1695994640.4672723, 
0.05541086196899414, 0.0745508074760437, 0.36805385140457925, 1695994640.4775038, 
0.34011662006378174, -0.09311145544052124, 0.37860391172415586, 1695994640.4873366, 
0.710616946220398, 0.4630977511405945, 0.36735704293075144, 1695994640.4972386, 
0.2118341326713562, 0.07158088684082031, 0.34509723863901215, 1695994640.507262, 
0.2312023639678955, -0.3418344259262085, 0.33901586752550306, 1695994640.517218, 
-0.6568140387535095, 0.32961010932922363, 0.33248643530626687, 1695994640.5274532, 
-0.5437295436859131, 0.03532308340072632, 0.3079250505063761, 1695994640.538516, 
-0.08940821886062622, 0.38535356521606445, 0.39742895466066763, 1695994640.5471866, 
-0.19597488641738892, 0.2800281047821045, 0.34614268335705956, 1695994640.55744, 
1.2819157838821411, -0.3103676438331604, 0.37617776947352044, 1695994640.5672076, 
0.39133763313293457, 0.2126559019088745, 0.37055065652998476, 1695994640.5771146, 
-0.14838194847106934, 0.1547601819038391, 0.3611133677081747, 1695994640.5871663, 
-0.46086806058883667, 0.20012962818145752, 0.367364623403758, 1695994640.597105, 
-0.20858389139175415, 0.3047170042991638, 0.3579423135751506, 1695994640.6071472, 
-0.38755643367767334, 0.022959887981414795, 0.29797527040913097, 1695994640.6189873, 
-0.17713934183120728, 0.43099743127822876, 0.43084307927467697, 1695994640.6271079, 
0.4298270344734192, 0.08565002679824829, 0.33412123910946934, 1695994640.637312, 
-0.03219008445739746, -0.04177063703536987, 0.34370044092601243, 1695994640.6470613, 
0.1183059811592102, 0.06459718942642212, 0.32672376819362264, 1695994640.6570704, 
-0.44201749563217163, -0.37869054079055786, 0.31797564016233754, 1695994640.6670945, 
-0.08186137676239014, 0.3473586440086365, 0.3121694895902234, 1695994640.6769888, 
0.7802920341491699, -0.08829212188720703, 0.29180704156976744, 1695994640.6870317, 
0.11057108640670776, 0.39707106351852417, 0.29344213404828784, 1695994640.7069833, 
-0.14480489492416382, -0.1452743411064148, 0.31821597037578403, 1695994640.7169635, 
-0.13948273658752441, 0.3224949836730957, 0.3221798234119918, 1695994640.727069, 
-1.1087725162506104, -0.10927081108093262, 0.3171990561955824, 1695994640.7371008, 
-0.3459550142288208, 0.0901191234588623, 0.31919323995475996, 1695994640.747033, 
0.3798809051513672, 1.2434428930282593, 0.32776335096218656, 1695994640.7569168, 
0.9582464694976807, 0.09103614091873169, 0.3391663851787281, 1695994640.7671463, 
-0.11368882656097412, -0.13502973318099976, 0.3185037380989882, 1695994640.778897, 
-0.5811593532562256, -0.0549740195274353, 0.48133936044874853, 1695994640.7868361, 
-0.032347798347473145, 0.25851690769195557, 0.37460749762636386, 1695994640.7969577, 
-0.29236096143722534, 0.6373135447502136, 0.3737747031414761, 1695994640.8068519, 
0.32464975118637085, -0.5803421139717102, 0.40877083307575524, 1695994640.815775, 
0.08286672830581665, 0.08822590112686157, 0.33130945094269215, 1695994640.8268673, 
-0.12227988243103027, 0.2486690878868103, 0.41939340956507737, 1695994640.8357744, 
-0.4636346697807312, -0.3239140510559082, 0.3463078215136986, 1695994640.846795, 
-0.2603197693824768, 0.1625540852546692, 0.32518106913854455, 1695994640.858573, 
-0.15726077556610107, -0.16938406229019165, 0.46558019953250385, 1695994640.8666933, 
0.3781433701515198, 0.3529438376426697, 0.3697213650800714, 1695994640.8768241, 
0.9415345191955566, 0.9812760949134827, 0.36576517283183974, 1695994640.8867283, 
0.428019642829895, -0.19413995742797852, 0.3668155286849276, 1695994640.8966265, 
-0.16816461086273193, -0.23024451732635498, 0.37608114454125374, 1695994640.9066727, 
0.2199823260307312, 0.0239638090133667, 0.37958332288261043, 1695994640.916629, 
0.03170979022979736, 0.8635105490684509, 0.36336477836155334, 1695994640.9268262, 
-0.6771336793899536, 0.3163353204727173, 0.2985747350211652, 1695994640.9390113, 
-0.4576071500778198, -0.7493957281112671, 0.4843630236162088, 1695994640.9466393, 
-0.10611099004745483, 0.12360912561416626, 0.376372491609749, 1695994640.956629, 
0.5847310423851013, 0.14435452222824097, 0.3572942518696547, 1695994640.9669101, 
0.5699779391288757, 0.258068323135376, 0.35732539430171417, 1695994640.976692, 
-0.19021308422088623, 0.23423051834106445, 0.33723337138023307, 1695994640.986831, 
-0.36525726318359375, -0.4198843836784363, 0.34920106637378884, 1695994640.9969094, 
-0.14178097248077393, 0.4455207586288452, 0.36752450397553255, 1695994641.0065691, 
0.025692403316497803, 0.34154319763183594, 0.2877074140406842, 1695994641.0187082, 
-0.26876747608184814, -0.18611419200897217, 0.4478833523832239, 1695994641.026517, 
-0.23201614618301392, 0.16481822729110718, 0.3517417977509629, 1695994641.036568, 
-0.11698299646377563, 0.28158730268478394, 0.346927539127679, 1695994641.0468705, 
0.07224440574645996, 0.4105491042137146, 0.36863320238132036, 1695994641.0564258, 
0.45338183641433716, -0.14009219408035278, 0.3205717730937932, 1695994641.0672026, 
0.16742122173309326, -0.09329766035079956, 0.37961012061600796, 1695994641.0763748, 
0.36625921726226807, 0.41696351766586304, 0.33543429036668626, 1695994641.086499, 
0.32135045528411865, -0.09960776567459106, 0.26362407579775354, 1695994641.0989938, 
0.06522953510284424, -0.09224814176559448, 0.44105998307777455, 1695994641.1064918, 
-0.08900618553161621, -0.14595168828964233, 0.3769373325086369, 1695994641.115404, 
-0.21158021688461304, 0.9996597766876221, 0.2956888261475652, 1695994641.1267288, 
-0.13642436265945435, -0.023136675357818604, 0.3301268835868795, 1695994641.136535, 
0.4630212187767029, -0.4066186547279358, 0.3125334004280272, 1695994641.146926, 
0.23247617483139038, 0.11972105503082275, 0.3580931953480508, 1695994641.1563659, 
0.20606255531311035, 0.1131560206413269, 0.34051494553961736, 1695994641.1665032, 
-0.4847089648246765, 0.534231960773468, 0.3076953346811999, 1695994641.1776152, 
0.004664957523345947, -0.21842002868652344, 0.38256804307164916, 1695994641.1862562, 
0.32544904947280884, 0.15184015035629272, 0.32528973669999495, 1695994641.19624, 
0.44623100757598877, 0.41476327180862427, 0.3250165461147532, 1695994641.206292, 
0.4168365001678467, 0.029970169067382812, 0.33163154427595426, 1695994641.216214, 
-0.5933051109313965, 0.20620888471603394, 0.31346335173361145, 1695994641.226893, 
-0.6450066566467285, -0.4340043067932129, 0.36190325447504246, 1695994641.2361865, 
-0.34856247901916504, 0.38591623306274414, 0.3386166912793831, 1695994641.2461932, 
0.2512356638908386, 0.679023027420044, 0.2573850905043579, 1695994641.2590873, 
0.525109052658081, -1.1479862928390503, 0.4469267693931126, 1695994641.2661233, 
0.7986224293708801, 0.16094642877578735, 0.31969873679342165, 1695994641.2761395, 
0.2584680914878845, 0.6329091191291809, 0.3278517826618819, 1695994641.286226, 
0.11185258626937866, 0.28617924451828003, 0.33423266859884004, 1695994641.2960684, 
-0.12666451930999756, 0.4215966463088989, 0.30855553718140205, 1695994641.306625, 
-0.5843712687492371, -0.46309155225753784, 0.33339254818056563, 1695994641.3160615, 
-0.20964527130126953, 0.5277637243270874, 0.3185159726949922, 1695994641.326081, 
-0.10727483034133911, 0.4062197804450989, 0.25053727812351784, 1695994641.3389566, 
0.2648923993110657, -0.44096750020980835, 0.4533651266404478, 1695994641.346012, 
-0.20027166604995728, 0.008231103420257568, 0.3340640961414986, 1695994641.3560138, 
0.056857943534851074, -0.27040916681289673, 0.35317620189789906, 1695994641.3660398, 
-0.4131734371185303, 0.7517796754837036, 0.3763058603105433, 1695994641.3759568, 
-0.09045135974884033, 0.5185514688491821, 0.34140100172098375, 1695994641.3870535, 
0.11738502979278564, -0.5522746443748474, 0.43199630346286894, 1695994641.3959591, 
0.17559218406677246, 0.5014912486076355, 0.3995041050734951, 1695994641.405975, 
0.3774290084838867, 0.20771807432174683, 0.30874530680905504, 1695994641.4189095, 
-0.15466272830963135, 0.45069098472595215, 0.5432074306193889, 1695994641.426101, 
-0.38753563165664673, 0.343675434589386, 0.3897123088198164, 1695994641.435931, 
-0.5977581143379211, -0.2809070944786072, 0.37300977850802486, 1695994641.4459386, 
0.21205872297286987, 0.21080970764160156, 0.3788412131375503, 1695994641.4558716, 
0.5372831225395203, -0.06505823135375977, 0.35332529308909116, 1695994641.4666078, 
0.724239706993103, -0.0627015233039856, 0.40929909711127127, 1695994641.4758224, 
0.6036234498023987, 0.19005703926086426, 0.37348673365869983, 1695994641.4858553, 
-0.28679096698760986, 0.25270211696624756, 0.3671202328863529, 1695994641.5058506, 
-0.5415468811988831, -0.6364126801490784, 0.34705556323905995, 1695994641.516453, 
-0.28935056924819946, 0.24804586172103882, 0.39866006855360847, 1695994641.525797, 
-0.11043822765350342, 0.8318853378295898, 0.37077176661688105, 1695994641.5357196, 
0.3799901008605957, -0.10110193490982056, 0.32419761321993523, 1695994641.5466762, 
-0.010850131511688232, 0.22824960947036743, 0.381798789933361, 1695994641.5556893, 
-0.12646788358688354, 0.04398345947265625, 0.3388936647539076, 1695994641.56573, 
-0.39067089557647705, -0.05007237195968628, 0.2695691054282048, 1695994641.5785654, 
-0.30808496475219727, 0.35081303119659424, 0.48248214188121646, 1695994641.5857325, 
0.14959025382995605, -0.013806045055389404, 0.3386443095360836, 1695994641.5957003, 
0.5521208643913269, -0.05812007188796997, 0.3312587205342356, 1695994641.6058095, 
0.7789211869239807, -0.2615929841995239, 0.3383973945838262, 1695994641.6156173, 
-0.2736508846282959, 0.3469155430793762, 0.30362640927392215, 1695994641.6266806, 
-0.4716923236846924, 0.7777823209762573, 0.37583930877713856, 1695994641.6355612, 
-0.3952648639678955, -0.3010895848274231, 0.3280891032643525, 1695994641.6456144, 
0.2571335434913635, 0.21381646394729614, 0.273896492545133, 1695994641.6582615, 
0.4542912244796753, 0.06745904684066772, 0.4893546140509424, 1695994641.6656063, 
0.5382233262062073, -0.5795483589172363, 0.36185836115148035, 1695994641.675575, 
0.7204481363296509, 0.5095732808113098, 0.3423725562954766, 1695994641.6855829, 
-0.1417108178138733, 0.1044381856918335, 0.31137145447596626, 1695994641.695525, 
-0.2563098669052124, -0.04846268892288208, 0.25573443371261856, 1695994641.7070866, 
-0.000958561897277832, 0.38649266958236694, 0.35193124831399536, 1695994641.7154741, 
0.16949838399887085, 0.06413233280181885, 0.302475723921429, 1695994641.7254813, 
-0.12127983570098877, 0.11724567413330078, 0.2477639573821476, 1695994641.7382169, 
0.07240396738052368, -0.20481717586517334, 0.5132900965034874, 1695994641.744427, 
-0.17063546180725098, 0.630260169506073, 0.31929679817560874, 1695994641.7545466, 
0.11708581447601318, 0.3849833011627197, 0.3291698900976529, 1695994641.7644382, 
0.1418120265007019, -0.7530994415283203, 0.29820728487645665, 1695994641.7757142, 
-0.5371413826942444, 0.2511042356491089, 0.3113271578478424, 1695994641.7869935, 
-0.14546442031860352, 0.3722670078277588, 0.42354548211786675, 1695994641.7953482, 
0.5256845355033875, 0.21398991346359253, 0.34206243353716503, 1695994641.8054578, 
0.23431295156478882, 0.29739344120025635, 0.2685130099154613, 1695994641.817874, 
-0.41142475605010986, -0.5139857530593872, 0.4459208666426859, 1695994641.8253117, 
-0.005231082439422607, 0.41394609212875366, 0.3341073545476824, 1695994641.835318, 
-0.16828519105911255, 0.29998624324798584, 0.323661808630855, 1695994641.845314, 
-0.18334919214248657, -0.30319201946258545, 0.32454190890954, 1695994641.8553212, 
0.05725592374801636, -0.04381030797958374, 0.2984087034681091, 1695994641.8666341, 
0.12605947256088257, -0.4418933391571045, 0.40535341759764176, 1695994641.8752546, 
0.8663079738616943, 0.6778124570846558, 0.3589152878166652, 1695994641.885269, 
0.4701014757156372, 0.5125879049301147, 0.3475703485245577, 1695994641.9052408, 
-0.16587626934051514, 0.26563745737075806, 0.3492282019113412, 1695994641.9152088, 
-0.16902625560760498, 0.4476577043533325, 0.34477271911030793, 1695994641.925184, 
-0.27902650833129883, 0.7829444408416748, 0.33694049347784594, 1695994641.9351468, 
-0.2452399730682373, -0.0016651749610900879, 0.2862334329621624, 1695994641.9466465, 
0.12568306922912598, -0.6227715611457825, 0.4015072620986351, 1695994641.955128, 
0.3549662232398987, 0.4999011158943176, 0.36178365860690637, 1695994641.965219, 
-0.11021178960800171, 0.022057533264160156, 0.381963228403322, 1695994641.975149, 
-0.2736314535140991, 0.14068180322647095, 0.38724960368963973, 1695994641.985121, 
-0.19898587465286255, 0.017360687255859375, 0.3849524513727964, 1695994641.995112, 
-0.020699501037597656, -0.19235122203826904, 0.3860769824116035, 1695994642.0050466, 
0.28664231300354004, 0.44092583656311035, 0.3810152114302852, 1695994642.015011, 
-0.10096848011016846, -0.013985753059387207, 0.3002817587379977, 1695994642.0273342, 
-0.3056372404098511, 0.0048351287841796875, 0.4739624818737656, 1695994642.0349867, 
-0.1536043882369995, 0.14019620418548584, 0.352439989651345, 1695994642.045009, 
0.13608258962631226, 0.5653167366981506, 0.3396595179910663, 1695994642.055055, 
0.09581851959228516, 0.7241122722625732, 0.3254113225677024, 1695994642.0652192, 
0.34975868463516235, -0.9594603776931763, 0.3428116142923135, 1695994642.0750358, 
0.5019568204879761, -0.15567177534103394, 0.338654558836085, 1695994642.0849998, 
-0.09704339504241943, 0.41966378688812256, 0.3205531600523371, 1695994642.0949407, 
0.08184385299682617, -0.25101983547210693, 0.2600547723329174, 1695994642.1067383, 
-0.057792603969573975, 0.3423823118209839, 0.37071311626573816, 1695994642.1148849, 
-0.40659838914871216, 0.15817254781723022, 0.30925178719364116, 1695994642.1249142, 
-0.12467259168624878, -0.10280215740203857, 0.3288755878207826, 1695994642.1349213, 
0.21204841136932373, 0.5252010226249695, 0.3309333544476716, 1695994642.1448834, 
0.642876386642456, 0.31521672010421753, 0.3217407159793557, 1695994642.1551456, 
0.23339956998825073, 0.1984870433807373, 0.3486339287797681, 1695994642.1648645, 
-0.23860174417495728, -0.3529088497161865, 0.33998078739800636, 1695994642.1750126, 
-0.44079113006591797, -0.0191841721534729, 0.29851102502364496, 1695994642.186937, 
-0.37416696548461914, 0.6228932738304138, 0.5229364142425565, 1695994642.193777, 
-0.29562908411026, -0.4007836580276489, 0.3546398858241091, 1695994642.203787, 
0.21157467365264893, 0.03654855489730835, 0.3600401128191927, 1695994642.2137635, 
0.31956958770751953, 0.31458359956741333, 0.3604755046052885, 1695994642.2237673, 
0.04975038766860962, -0.3482958674430847, 0.3221388101483119, 1695994642.2350006, 
-0.12840747833251953, 0.4026055932044983, 0.4118529735084326, 1695994642.24375, 
-0.5751205086708069, 0.28158479928970337, 0.3187932044209673, 1695994642.254812, 
0.14610445499420166, 0.36982184648513794, 0.29760719175443656, 1695994642.2666743, 
0.35686373710632324, 0.2649344205856323, 0.44987153698934473, 1695994642.2746925, 
0.459118127822876, -0.4795686602592468, 0.38020577891951346, 1695994642.2846854, 
0.783257007598877, 0.3623148202896118, 0.3871005376670655, 1695994642.29465, 
0.2776183485984802, 0.2166886329650879, 0.3703062067753296, 1695994642.3046262, 
0.6432110071182251, 0.3077225089073181, 0.35571950755518494, 1695994642.3146644, 
-0.6507117748260498, 0.21201401948928833, 0.3526334981616855, 1695994642.3246257, 
-0.3823872208595276, -0.27906668186187744, 0.3552063457121931, 1695994642.3346303, 
-0.13599252700805664, 0.5969202518463135, 0.2818581534513173, 1695994642.3473208, 
0.04180920124053955, -0.032965123653411865, 0.48079588139401064, 1695994642.3546584, 
0.2589251399040222, -0.23360538482666016, 0.3545265349579558, 1695994642.3645458, 
-0.14714699983596802, 0.2814840078353882, 0.3456966415981581, 1695994642.3745887, 
-0.42870408296585083, -0.19736891984939575, 0.3426668370008642, 1695994642.384568, 
-0.003817319869995117, 0.2836253046989441, 0.3625795567880246, 1695994642.3937232, 
0.4722858667373657, 0.005870461463928223, 0.33252217536527245, 1695994642.4035006, 
0.010048508644104004, -0.25212258100509644, 0.3203054254237052, 1695994642.4138288, 
0.18229836225509644, 0.24980425834655762, 0.2540051067152589, 1695994642.4269485, 
-0.020326733589172363, 0.07090318202972412, 0.4441950434102389, 1695994642.4344501, 
-0.27730733156204224, 0.3891574740409851, 0.3283835835539226, 1695994642.4445498, 
-0.2016546130180359, -0.03183478116989136, 0.3224700671844224, 1695994642.454646, 
0.11506688594818115, 0.017623305320739746, 0.36800994688532845, 1695994642.463489, 
0.2361137866973877, 0.3753635287284851, 0.2878390952548008, 1695994642.475072, 
0.5517683029174805, -0.10380673408508301, 0.362458907631397, 1695994642.4844615, 
0.5592011213302612, 0.305181622505188, 0.3417764055382472, 1695994642.4944263, 
0.041982293128967285, -0.19090509414672852, 0.2792805712815586, 1695994642.5067494, 
-0.2036128044128418, 0.5760534405708313, 0.44460467171464757, 1695994642.5145493, 
-0.466793954372406, -0.07051175832748413, 0.3522841170576463, 1695994642.5244803, 
-0.14045685529708862, -0.04204201698303223, 0.3573664632728809, 1695994642.5344846, 
0.25342100858688354, 0.4932239055633545, 0.36215344403702554, 1695994642.5444214, 
0.0715753436088562, 0.4012104868888855, 0.34205281702647133, 1695994642.5546901, 
-0.15658074617385864, 0.3783111572265625, 0.36413708535760403, 1695994642.5643613, 
-0.2868894934654236, -0.3036641478538513, 0.3849665872455362, 1695994642.5737684, 
-0.35986530780792236, 0.0827435851097107, 0.3162740539666051, 1695994642.5857549, 
-0.26165926456451416, 0.28516244888305664, 0.46234768902451373, 1695994642.5943165, 
0.23855912685394287, -0.24451404809951782, 0.39733927435090427, 1695994642.6043975, 
0.31733864545822144, -0.049572646617889404, 0.398743337176801, 1695994642.6143098, 
-0.11419236660003662, -0.21336638927459717, 0.38395522915721675, 1695994642.6243687, 
-0.06171947717666626, 0.3129422664642334, 0.36456108532356074, 1695994642.6346796, 
0.10131770372390747, 0.7892902493476868, 0.3702525495711671, 1695994642.6442025, 
0.3082248568534851, -0.31803929805755615, 0.3217326973924418, 1695994642.6541154, 
0.3317031264305115, -0.1058189868927002, 0.22499582457207237, 1695994642.6672964, 
0.4509773850440979, 0.2210736870765686, 0.4070705874052848, 1695994642.6741922, 
-0.01975846290588379, 0.021274328231811523, 0.2696656489629136, 1695994642.6842804, 
-0.2437412142753601, 0.12842237949371338, 0.27823901135209506, 1695994642.6942236, 
0.05403560400009155, -0.24434691667556763, 0.28763438677267944, 1695994642.7041428, 
-0.20364594459533691, 0.33566731214523315, 0.2892866839697104, 1695994642.7147198, 
0.049621522426605225, 0.4139363765716553, 0.34765392910376275, 1695994642.7241235, 
-0.00017815828323364258, 0.1699894666671753, 0.3429722097046724, 1695994642.7341204, 
-0.07585674524307251, -0.060121357440948486, 0.2842495923718547, 1695994642.7467127, 
0.031745076179504395, -0.5745317935943604, 0.4891388373487847, 1695994642.754112, 
0.6289041042327881, 0.7869892120361328, 0.34748103305591316, 1695994642.764406, 
0.047725141048431396, 0.8785979747772217, 0.3611040857518602, 1695994642.7740865, 
-0.3741984963417053, -0.8584136366844177, 0.34539919612363446, 1695994642.7842042, 
-0.2268555760383606, 0.17685437202453613, 0.31762860003237864, 1695994642.7956102, 
-0.03152257204055786, 0.3286733031272888, 0.42500256519292984, 1695994642.8040988, 
0.581519365310669, 0.15691161155700684, 0.3562458101813773, 1695994642.8141286, 
0.049396812915802, 0.166767418384552, 0.27555329182900934, 1695994642.8266926, 
-0.2563955783843994, -0.440679132938385, 0.4602998996309783, 1695994642.834049, 
-0.2152419090270996, 0.4033536911010742, 0.3359165122283803, 1695994642.844369, 
0.19158893823623657, 0.2074720859527588, 0.3561906111743097, 1695994642.854038, 
-0.18960607051849365, -0.17528367042541504, 0.34466963421693114, 1695994642.863983, 
0.016578733921051025, 0.05736309289932251, 0.3300436880353091, 1695994642.8748095, 
0.6405778527259827, -0.036984145641326904, 0.394982008710152, 1695994642.8840463, 
0.2939401865005493, 0.6272541284561157, 0.36980065175441756, 1695994642.8940718, 
0.018608510494232178, -0.12549108266830444, 0.3019359074010287, 1695994642.9063203, 
-0.09153038263320923, -0.46124356985092163, 0.4716645740908634, 1695994642.9141078, 
-0.16401749849319458, 0.8191260099411011, 0.3746296768391297, 1695994642.9239879, 
-0.4307623505592346, 0.12521278858184814, 0.36625074313462935, 1695994642.9339354, 
0.12762588262557983, 0.08058428764343262, 0.35611107738152276, 1695994642.9439518, 
-0.03823882341384888, -0.024917125701904297, 0.35818850216080306, 1695994642.9537544, 
0.1714801788330078, -0.2037227749824524, 0.3474316012432947, 1695994642.963858, 
-0.08607244491577148, 0.2853483557701111, 0.3475922371871743, 1695994642.9739232, 
-0.15685266256332397, 0.5487082600593567, 0.2644919468410634, 1695994642.9866016, 
-0.15393680334091187, 0.44183510541915894, 0.4473619292210544, 1695994642.9938812, 
0.1268482804298401, -0.5192789435386658, 0.32206770198539625, 1695994643.0040288, 
0.47329646348953247, -0.45094430446624756, 0.33710384978096125, 1695994643.01397, 
-0.33692413568496704, 0.38979601860046387, 0.3441247673756484, 1695994643.023929, 
-0.25505363941192627, -0.18768316507339478, 0.31851186633231, 1695994643.034723, 
0.02763962745666504, -0.060650646686553955, 0.3710892854618143, 1695994643.0438538, 
0.3177376389503479, 0.2760941982269287, 0.32378943644332303, 1695994643.0538983, 
0.7342197895050049, -0.15254133939743042, 0.2547846866621266, 1695994643.0662994, 
0.6929977536201477, 0.538350522518158, 0.4011074696990379, 1695994643.0739086, 
0.680522620677948, 0.3452714681625366, 0.28952408114669964, 1695994643.08395, 
-0.13030946254730225, 0.016505539417266846, 0.292042158929225, 1695994643.093865, 
-0.05836951732635498, -0.13838964700698853, 0.2915569593958991, 1695994643.10387, 
-0.1122332215309143, -0.09211975336074829, 0.2625246452547061, 1695994643.1152377, 
-0.5675492882728577, 0.36248779296875, 0.35084283179372383, 1695994643.1238554, 
-0.3185042142868042, -0.0862317681312561, 0.30136097399527306, 1695994643.1338573, 
-0.5844628214836121, -0.12236714363098145, 0.27516120601759964, 1695994643.144784, 
0.33295613527297974, 0.3815544843673706, 0.33646547707931124, 1695994643.153856, 
0.6208966970443726, -0.05514901876449585, 0.30823613617903795, 1695994643.1638582, 
-0.03312903642654419, -0.16713929176330566, 0.31564400323252645, 1695994643.1738722, 
-0.17882049083709717, 0.020449578762054443, 0.32882054140946865, 1695994643.1838367, 
-0.6560590267181396, 0.5006926655769348, 0.30378387492661957, 1695994643.1947162, 
-0.24874448776245117, 0.7342376708984375, 0.3504119947214187, 1695994643.2038674, 
-0.47628170251846313, -0.7565680742263794, 0.316562271828142, 1695994643.2138257, 
0.2808798551559448, 0.10894125699996948, 0.27214004284487975, 1695994643.2258205, 
0.5745204091072083, 0.9467270970344543, 0.480179020856741, 1695994643.232791, 
0.01343768835067749, 0.09528744220733643, 0.3052969859066135, 1695994643.2438645, 
0.11390292644500732, -0.3716505169868469, 0.34431275397270295, 1695994643.253835, 
-0.8943615555763245, -0.4219388961791992, 0.3426788873013387, 1695994643.2638206, 
0.16423559188842773, 0.8171929121017456, 0.31017405985877083, 1695994643.274734, 
0.3013933300971985, 0.5912120342254639, 0.416235633883849, 1695994643.2827573, 
0.5235075950622559, -0.39636123180389404, 0.34878123384288856, 1695994643.2927654, 
0.5225031971931458, -0.07839781045913696, 0.28718813917334307, 1695994643.3059466, 
-0.07305198907852173, 0.012952566146850586, 0.5735869319928975, 1695994643.3127747, 
0.7061346173286438, 0.33030885457992554, 0.3499232544310456, 1695994643.3238077, 
-0.7606740593910217, 0.36851704120635986, 0.37097323873153043, 1695994643.3338704, 
-0.18366992473602295, -0.5311241745948792, 0.41994034283713566, 1695994643.34275, 
-0.19240546226501465, 0.7118927836418152, 0.3040610458335294, 1695994643.3550465, 
0.29295724630355835, 0.25001955032348633, 0.412847484890202, 1695994643.3637223, 
0.3074549436569214, -0.7341160178184509, 0.39465509718843966, 1695994643.3727577, 
0.15024709701538086, -0.023631393909454346, 0.3436690296453297, 1695994643.3831086, 
-0.014120280742645264, 0.33473342657089233, 0.3517014793061044, 1695994643.3930566, 
-0.46020615100860596, 0.6601290106773376, 0.34526030030670307, 1695994643.4031634, 
0.36817312240600586, 0.08891284465789795, 0.3540880323181289, 1695994643.4129603, 
-0.24107760190963745, -0.4092611074447632, 0.35490254891745254, 1695994643.4230688, 
0.4360131025314331, 0.2634183168411255, 0.30514517088768, 1695994643.4351375, 
0.30372703075408936, -0.11671817302703857, 0.4503589247908655, 1695994643.4430094, 
0.16411703824996948, 0.467892587184906, 0.33839481953171424, 1695994643.452984, 
-0.33018946647644043, 0.03550237417221069, 0.33052615487886333, 1695994643.4629812, 
-0.3437415361404419, -0.7123626470565796, 0.33041943593110923, 1695994643.472973, 
0.5285976529121399, 0.8086296319961548, 0.3286797182406979, 1695994643.4830203, 
0.2813040614128113, 0.3597526550292969, 0.32879502789461756, 1695994643.4930162, 
0.22775745391845703, -0.007870256900787354, 0.33250250058773334, 1695994643.5029407, 
0.31257665157318115, -0.0862053632736206, 0.2832780236433721, 1695994643.514726, 
-0.22173947095870972, -0.18964368104934692, 0.41844880366359755, 1695994643.5228658, 
-0.4245949387550354, 0.581359326839447, 0.3413888649467693, 1695994643.532865, 
-0.4032405614852905, -0.09773093461990356, 0.3406250964961008, 1695994643.5428255, 
-0.20705604553222656, -0.2520105838775635, 0.3424175160635414, 1695994643.5528343, 
0.05654233694076538, 0.21864181756973267, 0.3300157433989237, 1695994643.5633726, 
0.6370503306388855, 0.13245362043380737, 0.3710074672155651, 1695994643.5728242, 
0.053894221782684326, 0.5111547708511353, 0.3891826488129184, 1695994643.5817971, 
-0.3638954162597656, -0.17414963245391846, 0.2903177622329874, 1695994643.5937672, 
-0.04116743803024292, 0.14648514986038208, 0.4405145685870879, 1695994643.6017792, 
-0.5459123253822327, 0.5713595747947693, 0.323735274976606, 1695994643.6127374, 
-0.10931217670440674, -0.3562390208244324, 0.3963990668122439, 1695994643.6217713, 
0.022705554962158203, -0.10908764600753784, 0.3368014325928744, 1695994643.6327477, 
0.048695266246795654, 0.11911064386367798, 0.3661332632619527, 1695994643.6430256, 
-0.29707884788513184, 0.27752137184143066, 0.38774857435946497, 1695994643.652715, 
0.20851504802703857, 0.45854490995407104, 0.3612196030178013, 1695994643.6628556, 
0.242914617061615, -0.16325479745864868, 0.30141557354589676, 1695994643.6747308, 
0.7118869423866272, -0.04100930690765381, 0.4417941541955688, 1695994643.6826613, 
0.798528790473938, 0.04080545902252197, 0.3322815938696988, 1695994643.6926203, 
-0.0021287202835083008, -0.08369451761245728, 0.3147530831467599, 1695994643.7026663, 
-0.3343656063079834, 0.4562685489654541, 0.3146740985064436, 1695994643.7125793, 
-0.2771216034889221, -0.111491858959198, 0.3292431559168305, 1695994643.72193, 
-0.20345741510391235, 0.11215740442276001, 0.3135819406490086, 1695994643.731541, 
0.11764627695083618, -0.12386476993560791, 0.2884483201899411, 1695994643.741628, 
0.7631450891494751, -0.2278745174407959, 0.21368200891439798, 1695994643.7551675, 
0.164847731590271, 0.20491284132003784, 0.3890655065581819, 1695994643.7625954, 
-0.3255121111869812, -0.10123246908187866, 0.28981001286401153, 1695994643.7726572, 
-0.3055715560913086, 0.42950552701950073, 0.29242776855649233, 1695994643.7825239, 
0.04265552759170532, 0.5853389501571655, 0.2817832320760751, 1695994643.792541, 
-0.13578903675079346, -0.46977758407592773, 0.2763326938192308, 1695994643.8032782, 
0.11563980579376221, 0.18890106678009033, 0.33777827008683364, 1695994643.812469, 
0.08361327648162842, 0.4634878635406494, 0.317383813623948, 1695994643.822527, 
-0.1844005584716797, 0.11133086681365967, 0.27355722784190745, 1695994643.8347077, 
-0.22758257389068604, 0.01647019386291504, 0.4420327973860607, 1695994643.842418, 
-0.40678590536117554, -0.33410531282424927, 0.3456221075408565, 1695994643.8525631, 
0.033554255962371826, 0.42983758449554443, 0.36911197324109923, 1695994643.8624156, 
0.2588197588920593, 0.02797853946685791, 0.37784095824577196, 1695994643.8724062, 
0.1063922643661499, 0.28593581914901733, 0.35290561804471965, 1695994643.8834732, 
-0.29851412773132324, 0.029706239700317383, 0.42819708239703586, 1695994643.892514, 
-0.044888198375701904, 0.7963988780975342, 0.3837790213883321, 1695994643.9024472, 
-0.04733854532241821, 0.5601748824119568, 0.2931384429997763, 1695994643.9150758, 
-0.23195940256118774, -0.48150044679641724, 0.4825946410187822, 1695994643.922504, 
0.046147048473358154, -0.004639089107513428, 0.3780361811822134, 1695994643.9322927, 
0.5928111672401428, -0.002767622470855713, 0.3779355488159866, 1695994643.9423363, 
-0.17509949207305908, 0.23308002948760986, 0.3823031180878026, 1695994643.9522717, 
-0.10149133205413818, 0.05708754062652588, 0.3563239665662158, 1695994643.9629683, 
-0.36270564794540405, -0.2159155011177063, 0.4131997630609919, 1695994643.9722383, 
0.2700456380844116, 0.08302253484725952, 0.3904044435562722, 1695994643.9821863, 
0.3084772825241089, -0.014029622077941895, 0.3069406882163387, 1695994643.9948611, 
0.3838024139404297, 0.5010372400283813, 0.4270239262063385, 1695994644.0123682, 
-0.46170729398727417, -0.20258402824401855, 0.3734206154019754, 1695994644.0221593, 
-0.43520259857177734, 0.47936326265335083, 0.3736672834133805, 1695994644.0321262, 
-0.681562602519989, -0.25453388690948486, 0.3267849511490746, 1695994644.0436442, 
0.3835827708244324, -0.21152526140213013, 0.4471447674285338, 1695994644.0520847, 
0.5013323426246643, 0.2975335717201233, 0.366366946022751, 1695994644.062091, 
0.8297951817512512, 0.038762450218200684, 0.2639044880455783, 1695994644.0752568, 
0.6868076920509338, 0.12376481294631958, 0.47562105625286205, 1695994644.0822933, 
-0.005605638027191162, 0.10339677333831787, 0.3347993363000605, 1695994644.0920293, 
-0.2155802845954895, 0.19510924816131592, 0.322601242055559, 1695994644.102085, 
-0.7035858035087585, 0.08956587314605713, 0.3184990595094756, 1695994644.112162, 
-0.22663670778274536, -0.03847813606262207, 0.29593305644887735, 1695994644.1229367, 
0.22216075658798218, -0.033967018127441406, 0.357478317935312, 1695994644.1319857, 
1.0954984426498413, -0.25949305295944214, 0.32807831379825403, 1695994644.1420047, 
-0.042453229427337646, 0.7362949252128601, 0.25703648185914213, 1695994644.1550486, 
-0.042453229427337646, 0.7362949252128601, 0.48430274211034013, 1695994644.1619644, 
-0.5990037322044373, -0.23091775178909302, 0.32043100691130055, 1695994644.1721182, 
-0.3305045962333679, -0.014595329761505127, 0.325012219240261, 1695994644.1819875, 
0.09716033935546875, 0.13395923376083374, 0.3231928154281699, 1695994644.1919003, 
0.08639544248580933, -0.0069449543952941895, 0.27394875810323216, 1695994644.2035005, 
0.38067299127578735, 0.3312317132949829, 0.37353939454582924, 1695994644.2118778, 
-0.5302561521530151, -0.012751221656799316, 0.31434800545173147, 1695994644.2218802, 
-0.4090309143066406, -0.23093736171722412, 0.2503208061131566, 1695994644.2348025, 
-0.23849594593048096, 0.001227736473083496, 0.5592866419398747, 1695994644.240783, 
0.0039130449295043945, 0.06541448831558228, 0.3190220052790546, 1695994644.2518153, 
0.48408544063568115, 0.10564416646957397, 0.36845680466904174, 1695994644.2618253, 
0.670056939125061, -0.39507734775543213, 0.37065225855432815, 1695994644.2717426, 
0.9011250138282776, 0.6707480549812317, 0.30502189314619743, 1695994644.283233, 
-0.12067157030105591, 0.41619306802749634, 0.3817624094820548, 1695994644.2917125, 
-0.22294145822525024, -0.5934832096099854, 0.3066494403643146, 1695994644.3017416, 
-0.3756992816925049, 0.5917288064956665, 0.23997951059023323, 1695994644.3143446, 
-0.4774588942527771, 0.4025217294692993, 0.4002987696345276, 1695994644.32171, 
0.42983001470565796, 0.07986783981323242, 0.3076615180746336, 1695994644.3317182, 
0.5883297324180603, 0.2602970004081726, 0.3371793386740826, 1695994644.3416576, 
0.22521942853927612, -0.4070313572883606, 0.35826567018340516, 1695994644.3515859, 
0.23228585720062256, 0.2726534605026245, 0.30230000712898814, 1695994644.3636444, 
-0.007165431976318359, -0.17992079257965088, 0.4478623145348595, 1695994644.3715773, 
-0.23542219400405884, -0.15951842069625854, 0.3937489652208465, 1695994644.380599, 
0.10222768783569336, 0.30026745796203613, 0.2583032327090052, 1695994644.3943968, 
-0.23968493938446045, -0.029628396034240723, 0.5532433003412801, 1695994644.4005713, 
0.15506082773208618, 0.5087946653366089, 0.3060801181412314, 1695994644.4115727, 
0.04501420259475708, 0.17615669965744019, 0.3345509280779095, 1695994644.4215848, 
-0.2808986306190491, -0.28178131580352783, 0.3631036570719456, 1695994644.4307916, 
-0.49733227491378784, 0.18811804056167603, 0.2787405415051997, 1695994644.4430165, 
-0.3108506202697754, -0.10233575105667114, 0.410333978630528, 1695994644.4514568, 
0.17884069681167603, 0.31744498014450073, 0.34336955838852595, 1695994644.4616153, 
0.2582606077194214, -0.05799973011016846, 0.2825059374454283, 1695994644.4738371, 
0.8179748058319092, -0.41812074184417725, 0.45967940045921724, 1695994644.481428, 
0.3137941360473633, 0.567925214767456, 0.35597956744412024, 1695994644.4914713, 
0.03628963232040405, 0.2081637978553772, 0.3622786937654699, 1695994644.5013912, 
0.06012171506881714, 0.34508341550827026, 0.35361956163968994, 1695994644.5114458, 
-0.43794357776641846, 0.2536666989326477, 0.2863966799387603, 1695994644.5236797, 
-0.32926273345947266, 0.08009421825408936, 0.45102551254577233, 1695994644.5313659, 
-0.32140451669692993, -0.022628843784332275, 0.34404071438712946, 1695994644.54155, 
0.04545247554779053, -0.1343017816543579, 0.28864304245535277, 1695994644.5538104, 
0.15692514181137085, 0.09478604793548584, 0.4560150315424317, 1695994644.5615819, 
-0.03949481248855591, 0.13356727361679077, 0.36218908343598155, 1695994644.5714085, 
-0.19761109352111816, 0.2685900330543518, 0.3612447609944689, 1695994644.5812912, 
-0.6873412728309631, 0.7400436401367188, 0.3552710193932477, 1695994644.5912893, 
-0.1268996000289917, -0.5158044695854187, 0.3057151781134656, 1695994644.6029842, 
0.2283693552017212, -0.46217578649520874, 0.44143953500437594, 1695994644.611265, 
0.256619930267334, 0.5798293352127075, 0.365984480638909, 1695994644.6212618, 
-0.2499908208847046, 0.3784366250038147, 0.3604796974082798, 1695994644.6312895, 
-0.21672487258911133, -0.2575514316558838, 0.36275493947647036, 1695994644.641181, 
-0.3981197476387024, -0.1403535008430481, 0.35400154107951753, 1695994644.6513999, 
0.1765994429588318, 0.22643381357192993, 0.37792822870374204, 1695994644.6611633, 
0.994437038898468, 0.172713041305542, 0.36533869252973805, 1695994644.6711738, 
0.6493730545043945, 0.04905092716217041, 0.29839948237534974, 1695994644.6829543, 
0.605765163898468, 0.22519326210021973, 0.4153611594128148, 1695994644.691183, 
-0.1046023964881897, -0.19318723678588867, 0.32659776089685066, 1695994644.7014458, 
0.25460243225097656, -0.011380434036254883, 0.34017334108621444, 1695994644.7111151, 
-0.4500625729560852, 0.6002469062805176, 0.3206060072458905, 1695994644.7211401, 
-0.6771681308746338, -0.12032955884933472, 0.3189282882741385, 1695994644.7311425, 
-0.33707529306411743, -0.08230304718017578, 0.32439337499013626, 1695994644.7410412, 
-0.24205422401428223, 0.09537690877914429, 0.31881030016981726, 1695994644.751188, 
1.383890986442566, -0.2694240212440491, 0.2782099948450113, 1695994644.7629712, 
0.6266894340515137, -0.06445473432540894, 0.4092207000205666, 1695994644.7710125, 
-0.31593263149261475, 0.05892515182495117, 0.32528434270692685, 1695994644.7810574, 
-0.5664022564888, 0.47319793701171875, 0.31781133267720885, 1695994644.791128, 
-0.15304666757583618, 0.2864353060722351, 0.30872726207902446, 1695994644.801123, 
0.013835132122039795, -0.4316036105155945, 0.30118372442206337, 1695994644.8113554, 
0.40668684244155884, 0.0614510178565979, 0.32814217605642815, 1695994644.8209686, 
0.15972477197647095, 0.3815320134162903, 0.31950849918868274, 1695994644.8309703, 
-0.2176421880722046, 0.6692243814468384, 0.26142868129787844, 1695994644.8434312, 
-0.3590430021286011, 0.14244621992111206, 0.44079706153924714, 1695994644.850885, 
-0.42176389694213867, -0.8177940249443054, 0.33608040013941903, 1695994644.8609152, 
0.31697791814804077, 0.1684628129005432, 0.3393899761601967, 1695994644.8710966, 
0.6149255633354187, 0.2680904269218445, 0.35525968326850943, 1695994644.8809035, 
0.8417395949363708, -0.27392852306365967, 0.34427075592471057, 1695994644.8909855, 
-0.05857837200164795, -0.17965787649154663, 0.3469697242648801, 1695994644.900842, 
-0.28276175260543823, -0.24118924140930176, 0.3410283005709498, 1695994644.9108486, 
-0.16107112169265747, 0.8555187582969666, 0.26973042127541696, 1695994644.9233253, 
-0.17858248949050903, 0.7151433229446411, 0.43023454133060357, 1695994644.930792, 
-0.18211477994918823, -0.26763927936553955, 0.3653792936472628, 1695994644.9397643, 
-0.003541290760040283, 0.07218128442764282, 0.31815070580307425, 1695994644.9508166, 
0.33661019802093506, 0.15578222274780273, 0.36505691335513524, 1695994644.9608142, 
-0.0187910795211792, 0.45401817560195923, 0.35131298418406776, 1695994644.9714432, 
-0.22437047958374023, -0.11882054805755615, 0.45256507732985835, 1695994644.979754, 
-0.18745893239974976, -0.7137231826782227, 0.34344691638755337, 1695994644.9909265, 
0.5516947507858276, 0.4490528106689453, 0.3829127902559931, 1695994645.0107043, 
0.2674420475959778, 0.3829992413520813, 0.3553535486500921, 1695994645.0206726, 
-0.2016146183013916, -0.23495876789093018, 0.35249575423527885, 1695994645.0306847, 
-0.44466984272003174, -0.36086881160736084, 0.40939074539238174, 1695994645.039595, 
-0.21880435943603516, 0.6401576995849609, 0.35460807025860064, 1695994645.0498717, 
-0.1673356294631958, 0.0015934109687805176, 0.3611803509476138, 1695994645.0596197, 
0.048552870750427246, -0.6658426523208618, 0.3124174849992427, 1695994645.0706396, 
0.6761594414710999, 0.18032699823379517, 0.2718408839852849, 1695994645.0829473, 
0.9034283757209778, 0.4339924454689026, 0.417819953202908, 1695994645.0905383, 
0.15960490703582764, 0.3729270100593567, 0.2975750797171881, 1695994645.1006634, 
-0.21370160579681396, -0.4318315386772156, 0.3026594369451203, 1695994645.1105623, 
-0.5348315238952637, 0.0526081919670105, 0.2996647691195168, 1695994645.120515, 
-0.3334025740623474, 0.6695056557655334, 0.27853954159850747, 1695994645.1309507, 
-0.24007558822631836, 0.0857093334197998, 0.30495820915451444, 1695994645.140473, 
0.2974342107772827, 0.09455567598342896, 0.29606104376008896, 1695994645.1505263, 
0.11064779758453369, -0.42760026454925537, 0.25016667957939187, 1695994645.1634119, 
-0.12940454483032227, -0.02059781551361084, 0.48853359191753803, 1695994645.170466, 
-0.2699626088142395, 0.3699154257774353, 0.34438071512369134, 1695994645.1804664, 
-0.3320304751396179, -0.014644265174865723, 0.3420620649132382, 1695994645.1904814, 
-0.32555580139160156, 0.24793773889541626, 0.3434213524428918, 1695994645.2004616, 
-0.2661423683166504, 0.2299448847770691, 0.32336326113503905, 1695994645.2110255, 
0.20128434896469116, -0.3214740753173828, 0.3658119706727628, 1695994645.2204611, 
-0.06827890872955322, 0.1695743203163147, 0.34998892578668095, 1695994645.2304463, 
-0.14142388105392456, 0.04454970359802246, 0.2801443962670912, 1695994645.243097, 
0.23347008228302002, 0.08630102872848511, 0.5579775261699004, 1695994645.249608, 
-0.0038352012634277344, -0.4003424644470215, 0.3504868447481597, 1695994645.2604818, 
0.06491965055465698, 0.2040831446647644, 0.40210666612637774, 1695994645.2704825, 
0.7878834009170532, -0.1814262866973877, 0.41104953960085383, 1695994645.280317, 
0.4499185085296631, 0.29524385929107666, 0.34380861949680375, 1695994645.2916222, 
0.19330620765686035, 0.507394015789032, 0.41867690392022777, 1695994645.3002996, 
-0.35536402463912964, -0.5867656469345093, 0.34527221747297576, 1695994645.3102298, 
-0.2561261057853699, 0.49423253536224365, 0.29685832220247577, 1695994645.3217864, 
-0.32915693521499634, 0.4477713108062744, 0.40478064933258556, 1695994645.330239, 
0.2522946000099182, -0.019596993923187256, 0.33631505502461334, 1695994645.340486, 
0.39935773611068726, 0.22733956575393677, 0.3665559643973459, 1695994645.3503058, 
0.12652480602264404, -0.37206560373306274, 0.3652325674786304, 1695994645.3602178, 
0.030042707920074463, 0.11488109827041626, 0.3293040964716265, 1695994645.3713198, 
-0.028145670890808105, -0.16218072175979614, 0.4107567383603657, 1695994645.3801389, 
0.12365955114364624, 0.13169872760772705, 0.3514152566992035, 1695994645.3901134, 
-0.09693151712417603, -0.427016019821167, 0.33752315521677606, 1695994645.410119, 
0.198128342628479, 0.48502880334854126, 0.32064265062869757, 1695994645.420167, 
0.4671342372894287, 0.41435927152633667, 0.3203411472389753, 1695994645.4301512, 
0.0020624399185180664, -0.3085528016090393, 0.32016618777651434, 1695994645.440083, 
-0.20816630125045776, 0.2609267234802246, 0.2997173642816547, 1695994645.4508865, 
-0.5538177490234375, -0.012660205364227295, 0.36012248366310623, 1695994645.4600608, 
0.14169037342071533, -0.1486872434616089, 0.3391714089628625, 1695994645.470048, 
0.9225023984909058, 0.08803814649581909, 0.2815497594762942, 1695994645.482424, 
0.2573922276496887, 0.05434107780456543, 0.4705042666869611, 1695994645.4899738, 
0.0484277606010437, 0.20733660459518433, 0.36434346004520723, 1695994645.4999928, 
0.11129516363143921, 0.03183567523956299, 0.3683981946733563, 1695994645.5099955, 
-0.1791948676109314, 0.4850962162017822, 0.3643575467397569, 1695994645.5199897, 
-0.3919760584831238, 0.1857547163963318, 0.32541373728001177, 1695994645.5311015, 
0.25557804107666016, -0.055055201053619385, 0.4059108872400841, 1695994645.5399597, 
-0.13590013980865479, 0.19172406196594238, 0.3575082418727225, 1695994645.5499883, 
-0.13777512311935425, -0.164886474609375, 0.2878079472597524, 1695994645.562629, 
-0.36091548204421997, -0.1978158950805664, 0.5053419926038377, 1695994645.5699556, 
-0.2614371180534363, 0.11545431613922119, 0.3735586369757954, 1695994645.5798876, 
0.03898417949676514, 0.33535897731781006, 0.3685637962619317, 1695994645.5899367, 
0.2296905517578125, 0.25044578313827515, 0.364011288410013, 1695994645.5998647, 
0.30131101608276367, -0.22034764289855957, 0.29873723280969394, 1695994645.6116083, 
-0.17438101768493652, 0.1538243293762207, 0.42566629455345306, 1695994645.6198952, 
-0.2906445264816284, 0.2972171902656555, 0.35410467804452117, 1695994645.6298666, 
-0.5555333495140076, 0.04042208194732666, 0.27761025202397044, 1695994645.6421552, 
-0.3985282778739929, -0.08186590671539307, 0.5028498653022915, 1695994645.6488316, 
-0.2600312829017639, -0.3605884313583374, 0.3133044791721073, 1695994645.659817, 
0.3966032862663269, 0.11019796133041382, 0.3790771808947977, 1695994645.668829, 
0.8919928669929504, 0.24964898824691772, 0.29488487415089, 1695994645.6797, 
-0.033360064029693604, -0.1034926176071167, 0.30026432117879787, 1695994645.689973, 
-0.17371594905853271, 0.052021563053131104, 0.35672459840248266, 1695994645.6986442, 
-0.2578606605529785, 0.08845275640487671, 0.30802129422228053, 1695994645.7086818, 
-0.3041098117828369, 0.267345666885376, 0.24767353115342006, 1695994645.721168, 
0.3882792592048645, 0.4683157205581665, 0.3566676709568035, 1695994645.7296844, 
0.3541719913482666, -0.42073798179626465, 0.30659001812227615, 1695994645.739649, 
0.5342779755592346, 0.14986979961395264, 0.32885161509990946, 1695994645.7496688, 
0.044454336166381836, 0.7855955958366394, 0.3446749000670252, 1695994645.7595904, 
-0.20566964149475098, -0.19285660982131958, 0.30558374799027305, 1695994645.7709746, 
-0.2045433521270752, -0.39219605922698975, 0.42317067842549644, 1695994645.779516, 
-0.4816129803657532, -0.2998640537261963, 0.3701723061759894, 1695994645.7895584, 
0.25679928064346313, 0.4798213243484497, 0.3642054450486891, 1695994645.8095796, 
-0.2686435580253601, -0.4387522339820862, 0.3462262433654334, 1695994645.8196306, 
-0.8243246078491211, 0.1934165358543396, 0.35882348414102494, 1695994645.829471, 
0.053227007389068604, -0.25054043531417847, 0.3534208472454526, 1695994645.83945, 
0.4946584701538086, 0.4935109615325928, 0.3045475218353404, 1695994645.8508852, 
0.5278465747833252, 0.48910391330718994, 0.40516604991648447, 1695994645.8594315, 
0.3769848346710205, -0.6666720509529114, 0.35456238228443765, 1695994645.8694677, 
0.3915325403213501, 0.2790629267692566, 0.3657743148019457, 1695994645.8794498, 
-0.10243052244186401, 0.27888786792755127, 0.3627335503557025, 1695994645.8893845, 
-0.2324398159980774, -0.3031059503555298, 0.3596310727958915, 1695994645.8993862, 
-0.4226197600364685, -0.1404038667678833, 0.36121743816552737, 1695994645.9093833, 
-0.5804314017295837, 0.17708754539489746, 0.3451047755855665, 1695994645.9197311, 
0.18100112676620483, 0.726005494594574, 0.29270366154776495, 1695994645.9318693, 
0.5379452705383301, -0.17104148864746094, 0.4681462544317638, 1695994645.939371, 
0.17202258110046387, 0.037243425846099854, 0.3565339004958106, 1695994645.9493198, 
-0.4669382572174072, 0.33593159914016724, 0.3627119925297255, 1695994645.9593117, 
-0.16670995950698853, -0.25223207473754883, 0.36963567954006804, 1695994645.9692616, 
-0.5742486119270325, 0.5280605554580688, 0.37150090951430537, 1695994645.9793398, 
-0.01575225591659546, -0.1549149751663208, 0.3858175681925951, 1695994645.989239, 
0.5315858125686646, -0.6703362464904785, 0.3872318068662446, 1695994645.9992442, 
0.5265406370162964, 0.4970061182975769, 0.31636229681539385, 1695994646.011431, 
-0.21392947435379028, 0.41002553701400757, 0.48249613371330613, 1695994646.0192368, 
-0.45566117763519287, 0.21224939823150635, 0.37114515987722685, 1695994646.0292175, 
-0.10743147134780884, -0.20830011367797852, 0.3598071367662655, 1695994646.0391803, 
-0.05557429790496826, -0.0016932487487792969, 0.35200081823680973, 1695994646.0491757, 
0.6681723594665527, 0.2950856685638428, 0.321660051761174, 1695994646.0597215, 
0.3784584403038025, -0.5005417466163635, 0.3479647457961505, 1695994646.0691147, 
0.1082378625869751, 0.21864759922027588, 0.3356907594827733, 1695994646.0791264, 
-0.34144753217697144, 0.0976024866104126, 0.2855340386738666, 1695994646.091043, 
0.30310487747192383, -0.35157108306884766, 0.4191922945767809, 1695994646.0990863, 
0.09727436304092407, 0.4504595398902893, 0.329822858566571, 1695994646.1091332, 
-0.15011030435562134, 0.08292734622955322, 0.32457441127808967, 1695994646.119095, 
0.021697819232940674, 0.0461803674697876, 0.31893751887768357, 1695994646.1290512, 
-0.06520819664001465, 0.36545073986053467, 0.3032727959259735, 1695994646.139105, 
-0.031764328479766846, -0.11448782682418823, 0.30540773817415073, 1695994646.148997, 
0.13158172369003296, 0.1491873860359192, 0.31231192004932157, 1695994646.159015, 
0.2727886438369751, 0.08046025037765503, 0.263287836196999, 1695994646.1713157, 
-0.7253193855285645, 0.15756046772003174, 0.44160821245375054, 1695994646.178973, 
0.05299651622772217, 0.14657187461853027, 0.3379684219424734, 1695994646.1891396, 
0.13284999132156372, -0.26347243785858154, 0.34584653724493875, 1695994646.1990168, 
0.04808604717254639, 0.22416770458221436, 0.3462361832469219, 1695994646.208964, 
-0.05840808153152466, -0.05117708444595337, 0.3437286114782839, 1695994646.2190452, 
-0.2778133153915405, -0.13669699430465698, 0.3474868069319205, 1695994646.228911, 
-0.2728022336959839, 0.4689643979072571, 0.3335277913800949, 1695994646.2388928, 
0.06494462490081787, -0.07131707668304443, 0.25543939113897457, 1695994646.251419, 
0.6209478974342346, 0.36802470684051514, 0.4187316283926139, 1695994646.258846, 
0.11788958311080933, -0.026724517345428467, 0.31064542159618114, 1695994646.2691348, 
0.40305233001708984, -0.05488806962966919, 0.3450435801962383, 1695994646.2789156, 
-0.03817242383956909, 0.23883837461471558, 0.3467186235282715, 1695994646.2888322, 
-0.5697906613349915, -0.4879714846611023, 0.34545874925691256, 1695994646.2988896, 
0.08231347799301147, 0.5058876276016235, 0.39115275166909796, 1695994646.3077843, 
0.011118113994598389, 0.3013017773628235, 0.305808012841252, 1695994646.3188994, 
-0.04955655336380005, -0.33498769998550415, 0.28284783633663446, 1695994646.3310127, 
-0.25459009408950806, 0.47843194007873535, 0.45197649707911414, 1695994646.338701, 
0.275970995426178, 0.1814698576927185, 0.343641612410912, 1695994646.348999, 
0.31263792514801025, 0.554294228553772, 0.41156327413345517, 1695994646.3578088, 
0.06097310781478882, 0.1602765917778015, 0.36633373976490086, 1695994646.3677073, 
-0.34729713201522827, -0.052044570446014404, 0.3354281056348357, 1695994646.3786674, 
-0.17624199390411377, 0.637083113193512, 0.36770142283573853, 1695994646.3887186, 
-0.17743569612503052, -0.5406904220581055, 0.3693801790738902, 1695994646.398691, 
0.1345810890197754, -0.37985217571258545, 0.299316283146155, 1695994646.4111297, 
0.1353006362915039, 0.09409505128860474, 0.4893718503570485, 1695994646.4186475, 
-0.19256001710891724, -0.025452256202697754, 0.36683650015494834, 1695994646.4286475, 
0.04727911949157715, 0.6870138049125671, 0.3673665019440727, 1695994646.4385798, 
-0.12144255638122559, -0.0003852248191833496, 0.36398168539174147, 1695994646.4486706, 
0.07209432125091553, -0.48714137077331543, 0.37304959533883375, 1695994646.458929, 
0.3116273283958435, -9.417533874511719e-06, 0.3962573586240496, 1695994646.468561, 
0.6604371070861816, 0.41879916191101074, 0.39735491114163396, 1695994646.4777517, 
0.14681166410446167, 0.5448552370071411, 0.254975542896078, 1695994646.4913592, 
-0.5429494380950928, -0.5118722915649414, 0.4825417926464663, 1695994646.4984794, 
-0.0036666393280029297, -0.0021503567695617676, 0.3488605738727241, 1695994646.5085435, 
-0.3336225748062134, 0.6265534162521362, 0.3572405216576775, 1695994646.5184314, 
0.03377819061279297, -0.06159651279449463, 0.34761332997165934, 1695994646.5285075, 
0.2620745301246643, 0.20846468210220337, 0.3359671117251931, 1695994646.538918, 
0.2259981632232666, -0.14798206090927124, 0.3734602599508112, 1695994646.5485163, 
0.12051951885223389, -0.12170594930648804, 0.35611586672078127, 1695994646.558717, 
0.1473994255065918, 0.2998565435409546, 0.29891993880114803, 1695994646.5707912, 
-0.569687008857727, -0.19496554136276245, 0.47666738361584415, 1695994646.5784533, 
-0.49661242961883545, -0.021096765995025635, 0.37109656282242703, 1695994646.5884593, 
-0.3076653480529785, 0.18698078393936157, 0.3733510016853237, 1695994646.5983968, 
-0.0037938952445983887, 0.18718409538269043, 0.34619581535144966, 1695994646.609034, 
0.43290674686431885, 0.2288680076599121, 0.36500768626512486, 1695994646.619013, 
-0.1023261547088623, 0.41218310594558716, 0.35681159075027985, 1695994646.6291382, 
-0.5959557294845581, 0.11599081754684448, 0.35543285530807184, 1695994646.6391377, 
-0.18468701839447021, -0.1672191023826599, 0.2944800853082068, 1695994646.6510277, 
-0.03611785173416138, -0.010349810123443604, 0.43442224707415156, 1695994646.6589875, 
0.6564668416976929, -0.3026258945465088, 0.3403042890696258, 1695994646.6690571, 
1.2094329595565796, 0.27475112676620483, 0.3384251364899143, 1695994646.6789343, 
0.0788731575012207, 0.4370143413543701, 0.3183214104918257, 1695994646.689015, 
-0.35667920112609863, -0.33403897285461426, 0.307024000723448, 1695994646.6993158, 
-0.3565801978111267, -0.15774011611938477, 0.362000822385694, 1695994646.708302, 
-0.581767201423645, 0.026824355125427246, 0.33737573540750987, 1695994646.7181797, 
-0.6878975033760071, 0.2620202302932739, 0.2667342870962227, 1695994646.730911, 
0.2945430278778076, 0.16961157321929932, 0.47360934499302504, 1695994646.7381418, 
0.7478532195091248, -0.06750941276550293, 0.33393218259905005, 1695994646.7481763, 
0.3632039427757263, 0.324479341506958, 0.3276702951714268, 1695994646.7581282, 
-0.19946753978729248, -0.07956182956695557, 0.3193498833983459, 1695994646.7681453, 
-0.1024288535118103, 0.11292076110839844, 0.29966036500174914, 1695994646.7788851, 
-0.7231674194335938, 0.2373044490814209, 0.35050613916889806, 1695994646.7880857, 
-0.33263659477233887, -0.45399951934814453, 0.318585234216435, 1695994646.7981513, 
0.6519548296928406, 0.6599860191345215, 0.2552511311190563, 1695994646.810744, 
0.45178818702697754, -0.04465383291244507, 0.4373034683856953, 1695994646.818091, 
-0.08267372846603394, -0.5139942765235901, 0.3329674950056981, 1695994646.828073, 
-0.2894212603569031, 0.34789568185806274, 0.3450462584494108, 1695994646.8380034, 
-0.07797545194625854, 0.22697335481643677, 0.33178356532840253, 1695994646.8481162, 
0.5560525059700012, 0.3970935344696045, 0.30122773123612395, 1695994646.8589108, 
0.4627848267555237, -0.005395114421844482, 0.34162296357321337, 1695994646.867984, 
0.43297845125198364, -0.15075916051864624, 0.3018707496611028, 1695994646.877949, 
0.06600481271743774, 0.6329205632209778, 0.2319777369568047, 1695994646.891068, 
-0.15724778175354004, -0.2237565517425537, 0.43904397000285716, 1695994646.897898, 
-0.22560250759124756, -0.30393916368484497, 0.2988222294372817, 1695994646.9079463, 
-0.7170554995536804, -0.0759391188621521, 0.3101614523072101, 1695994646.9178696, 
-0.22666919231414795, -0.06714600324630737, 0.30410506172257407, 1695994646.9281769, 
0.29601138830184937, 0.783599317073822, 0.29784630083461194, 1695994646.939227, 
0.2727707624435425, -0.09867501258850098, 0.410191623086957, 1695994646.947895, 
0.03005892038345337, -0.09269100427627563, 0.38075502791294014, 1695994646.9579287, 
-0.002930760383605957, 0.18810057640075684, 0.3999017967855489, 1695994646.9779522, 
-0.5139476656913757, 0.718317985534668, 0.40282341520415066, 1695994646.9879308, 
-0.3771112561225891, -0.028401613235473633, 0.4472977119109176, 1695994646.99678, 
-0.032983481884002686, -0.7250326871871948, 0.4409351109832662, 1695994647.0057573, 
0.0814739465713501, 0.09272700548171997, 0.3752774710694585, 1695994647.0268254, 
0.11867707967758179, 0.3383399248123169, 0.3748573762036583, 1695994647.036857, 
-0.10176336765289307, 0.004153549671173096, 0.26926798856765205, 1695994647.0503056, 
-0.39460551738739014, 0.3144102692604065, 0.6526624118061272, 1695994647.055792, 
0.02757740020751953, -0.13623714447021484, 0.2996832478941362, 1695994647.0677192, 
0.5669775605201721, -0.5871351957321167, 0.3615480312867334, 1695994647.0776618, 
0.8086807727813721, 0.49007463455200195, 0.39816046663603083, 1695994647.0868094, 
-0.014286458492279053, 0.4923059940338135, 0.29558441751026676, 1695994647.0988908, 
-0.12871962785720825, -0.14618265628814697, 0.3918982452298925, 1695994647.1076832, 
-0.4089866876602173, 0.3359587788581848, 0.3436734885370131, 1695994647.1176226, 
-0.4840123653411865, 0.09953796863555908, 0.2754624446585485, 1695994647.1301086, 
0.01291590929031372, -0.16622281074523926, 0.4655746736451261, 1695994647.1375628, 
0.159221351146698, 0.04529106616973877, 0.340262646039669, 1695994647.1475449, 
0.36574286222457886, 0.062451303005218506, 0.3331707417341968, 1695994647.1575577, 
0.042870938777923584, -0.07694000005722046, 0.365011783622486, 1695994647.166766, 
-0.0901678204536438, -0.05740845203399658, 0.2718273636530307, 1695994647.1792457, 
-0.3814210891723633, 0.717970073223114, 0.41002184740688025, 1695994647.1874692, 
-0.09664016962051392, 0.18395590782165527, 0.32732528984163856, 1695994647.197599, 
0.5561531782150269, -0.3094499111175537, 0.33432633201712053, 1695994647.2076285, 
0.005854964256286621, 0.12746679782867432, 0.3539395222747875, 1695994647.2174695, 
-0.4016239643096924, -0.4081262946128845, 0.36096591323552807, 1695994647.227505, 
-0.12933635711669922, 0.05771279335021973, 0.36528550560630635, 1695994647.2374332, 
0.08921492099761963, 0.688853919506073, 0.34423039532126126, 1695994647.2476337, 
0.0534588098526001, -0.23522818088531494, 0.309300053238245, 1695994647.258924, 
0.47414249181747437, -0.05593687295913696, 0.4259406778840977, 1695994647.2673757, 
0.37520837783813477, 0.19178324937820435, 0.3680416033814594, 1695994647.2773585, 
0.12072443962097168, 0.27700430154800415, 0.3650876386093521, 1695994647.2874043, 
-0.18318849802017212, -0.19779545068740845, 0.3585196392259075, 1695994647.2973077, 
-0.1413831114768982, -0.13016635179519653, 0.3460491237474404, 1695994647.3074005, 
-0.4998089075088501, 0.9038416743278503, 0.348671322515935, 1695994647.3173254, 
-0.25075483322143555, -0.3832307457923889, 0.331893182928854, 1695994647.3274488, 
0.44619178771972656, -0.5069343447685242, 0.27914416710244094, 1695994647.339356, 
0.125230610370636, 0.4863128066062927, 0.42309068714082126, 1695994647.3472717, 
0.21643352508544922, 0.008801579475402832, 0.33811075738190666, 1695994647.357329, 
0.38425374031066895, 0.5893391370773315, 0.3482082538255537, 1695994647.367273, 
-0.5750635862350464, 0.03797638416290283, 0.34968162273410347, 1695994647.3771894, 
-0.2065710425376892, -0.27558082342147827, 0.3491743514758673, 1695994647.38726, 
0.278537392616272, 0.7361725568771362, 0.34892651681773673, 1695994647.3971853, 
0.04855632781982422, -0.14894640445709229, 0.3303214644632983, 1695994647.407341, 
-0.21842312812805176, -0.233434796333313, 0.28996687341700694, 1695994647.419215, 
-0.387925922870636, -0.3134539723396301, 0.43287669916850435, 1695994647.4272683, 
-0.19873708486557007, 0.02873438596725464, 0.34880319490368744, 1695994647.437178, 
0.2548943758010864, 0.6471482515335083, 0.33623337487410393, 1695994647.4471827, 
0.6575375199317932, -0.4481145739555359, 0.32741793164461147, 1695994647.4571707, 
0.1664038896560669, 0.06268817186355591, 0.328506875434035, 1695994647.4673853, 
0.3618727922439575, 0.4897874593734741, 0.35132883660103664, 1695994647.4770672, 
0.20020991563796997, 0.14310067892074585, 0.33423546323910147, 1695994647.487083, 
-0.42941904067993164, -0.2215176224708557, 0.2749595439999224, 1695994647.4992793, 
-0.42941904067993164, -0.2215176224708557, 0.4462709106127967, 1695994647.5071173, 
-0.2979673743247986, 0.28278040885925293, 0.3658670380621439, 1695994647.5170877, 
-0.5001670718193054, 0.39257001876831055, 0.36747487947721763, 1695994647.527079, 
-0.3203778862953186, -0.37029755115509033, 0.3805632144770309, 1695994647.5369978, 
0.2817333936691284, 0.2608451843261719, 0.39266921111286146, 1695994647.5469882, 
0.3477511405944824, -0.005572855472564697, 0.3982021035312836, 1695994647.5569782, 
-0.04219561815261841, 0.18977314233779907, 0.40360065905585607, 1695994647.5669632, 
-0.5850376486778259, -0.0134354829788208, 0.3388016619343306, 1695994647.5789404, 
-0.0931900143623352, -0.0006061792373657227, 0.5038936131121597, 1695994647.586934, 
-0.07526516914367676, 0.4036845564842224, 0.3858973158430076, 1695994647.596996, 
0.33769309520721436, -0.2129131555557251, 0.3747168337571575, 1695994647.606976, 
0.2077873945236206, 0.39295315742492676, 0.36841835510578913, 1695994647.616875, 
-0.5309677720069885, 0.16339600086212158, 0.35457949275996914, 1695994647.6270359, 
-0.37717074155807495, -0.40523219108581543, 0.3710970910067247, 1695994647.6368496, 
-0.29097431898117065, 0.37082916498184204, 0.3623111766516386, 1695994647.6468375, 
0.04534447193145752, -0.03897327184677124, 0.28262059174161064, 1695994647.6593893, 
0.2751612067222595, -0.30863863229751587, 0.5418960758643754, 1695994647.6657789, 
0.9417575001716614, 0.3739668130874634, 0.33132673125060835, 1695994647.6759598, 
0.14023542404174805, -0.04936492443084717, 0.3468279257218302, 1695994647.6858315, 
-0.23349666595458984, 0.09070426225662231, 0.35172717505422413, 1695994647.6957674, 
0.1206585168838501, 0.03390902280807495, 0.3420884555761171, 1695994647.7059672, 
-0.3159198760986328, 0.5444942116737366, 0.39481931477866467, 1695994647.7147536, 
-0.18571895360946655, 0.10206866264343262, 0.28044466704498644, 1695994647.726902, 
-0.13360607624053955, -0.5639682412147522, 0.2842542219589412, 1695994647.738943, 
0.18152940273284912, 0.455352783203125, 0.4516605474410356, 1695994647.746639, 
0.052692413330078125, 0.1022692322731018, 0.3461699982098516, 1695994647.7566774, 
0.423148512840271, -0.3332306146621704, 0.3496437865154325, 1695994647.7666903, 
-0.28293758630752563, 0.4910535216331482, 0.35810173485990204, 1695994647.776635, 
-0.11694663763046265, -0.23123687505722046, 0.3312084709282456, 1695994647.7875657, 
0.28642112016677856, 0.21862834692001343, 0.3947659888144202, 1695994647.796609, 
-0.04091286659240723, 0.24253129959106445, 0.341021736915124, 1695994647.8066661, 
-0.2542387843132019, 0.09899276494979858, 0.2769628198046332, 1695994647.8189523, 
-0.26686131954193115, 0.4287427067756653, 0.4410495753174335, 1695994647.826584, 
-0.04577726125717163, -0.3584820032119751, 0.33463325266770294, 1695994647.8367426, 
-0.3145885467529297, -0.19365382194519043, 0.35507258069218683, 1695994647.8465607, 
0.4439079165458679, 0.124270498752594, 0.3431448471680132, 1695994647.8565395, 
0.4569949507713318, 0.13497966527938843, 0.3204559362227574, 1695994647.866974, 
0.6258009672164917, 0.6987371444702148, 0.34238499206164885, 1695994647.8764977, 
0.05241954326629639, -0.4526638984680176, 0.31620512644949766, 1695994647.886719, 
0.12920337915420532, 0.4675341248512268, 0.3260332814792307, 1695994647.9065356, 
-0.22977644205093384, -0.33417582511901855, 0.3275953418628552, 1695994647.916478, 
-0.2525050640106201, 0.20484447479248047, 0.3305148488245106, 1695994647.9264832, 
-1.0776582956314087, -0.21226167678833008, 0.33534964399806977, 1695994647.9364014, 
-0.06602323055267334, 0.0017704367637634277, 0.31113364453073283, 1695994647.947269, 
0.21274256706237793, 0.6167110800743103, 0.37682907885593103, 1695994647.956438, 
0.5164923071861267, -0.1402435302734375, 0.3531825460148306, 1695994647.9667382, 
-0.47942692041397095, 0.20913124084472656, 0.2972783738657197, 1695994647.9794352, 
0.04051238298416138, 0.06610262393951416, 0.5293331228625181, 1695994647.986475, 
-0.0345916748046875, 0.21903204917907715, 0.3618308221435738, 1695994647.996617, 
0.43363386392593384, -0.38814133405685425, 0.36132076598956164, 1695994648.0066254, 
0.07124513387680054, 0.40501952171325684, 0.3690602998787241, 1695994648.0164828, 
-0.07402414083480835, 0.219377338886261, 0.3314584812745095, 1695994648.0275533, 
-0.24813348054885864, -0.08986860513687134, 0.41328461842730874, 1695994648.0363164, 
0.23348373174667358, 0.1936085820198059, 0.3572588709597259, 1695994648.0464602, 
0.07714420557022095, -0.4489341378211975, 0.2795663751070533, 1695994648.0595477, 
0.598217248916626, 0.12922316789627075, 0.5466842829865117, 1695994648.0662289, 
0.4898821711540222, 0.1695692539215088, 0.35004317547100683, 1695994648.0762508, 
-0.1854134202003479, -0.2340053915977478, 0.3287440701148859, 1695994648.0862677, 
-0.025948941707611084, 0.32234758138656616, 0.3259250189977479, 1695994648.0961692, 
-0.2856014370918274, 0.29767775535583496, 0.2819035952398243, 1695994648.1073718, 
-0.2665100693702698, 0.4725952744483948, 0.35054216591278026, 1695994648.1161113, 
-0.2330552339553833, -0.13046234846115112, 0.306531382733874, 1695994648.1261306, 
0.1828630566596985, -0.14897489547729492, 0.24986038388980525, 1695994648.138849, 
-0.271781861782074, 0.23403304815292358, 0.4537412278637809, 1695994648.1461368, 
-0.01896888017654419, -0.09539169073104858, 0.3397646122758932, 1695994648.156134, 
-0.34056371450424194, -0.030542731285095215, 0.34504988437197726, 1695994648.16621, 
-0.4024777412414551, 0.14495939016342163, 0.3541810849674518, 1695994648.1761198, 
-0.17902928590774536, 0.05230700969696045, 0.3274044770565223, 1695994648.1869261, 
0.30576932430267334, 0.5907962322235107, 0.3881031325408703, 1695994648.19602, 
0.38668763637542725, -0.022316575050354004, 0.34156555273005645, 1695994648.2060606, 
-0.28724223375320435, 0.054043710231781006, 0.26715240038842514, 1695994648.218833, 
-0.2716323137283325, 0.2002139687538147, 0.4779385270843081, 1695994648.2260041, 
-0.6665529012680054, -0.09986412525177002, 0.33717442076636295, 1695994648.2360022, 
-0.07242614030838013, 0.11152946949005127, 0.3352344273080559, 1695994648.2461035, 
0.4639148712158203, -0.2764502763748169, 0.35017817242189786, 1695994648.2560027, 
0.7225548624992371, -0.038356006145477295, 0.31816248016075477, 1695994648.267508, 
0.6622619032859802, 0.5290254354476929, 0.4572643597345426, 1695994648.2759147, 
-0.2282789945602417, 0.08195227384567261, 0.38504920464387193, 1695994648.2859464, 
-0.17970460653305054, 0.15255320072174072, 0.38008360273326425, 1695994648.3058562, 
-0.18966495990753174, 0.4079439043998718, 0.37534835034178526, 1695994648.315852, 
0.140652596950531, 1.0474326610565186, 0.36293053242159995, 1695994648.3258278, 
0.15128934383392334, -0.6283563375473022, 0.33825122621067094, 1695994648.3357985, 
-0.2085605263710022, -0.22208499908447266, 0.31488173127273816, 1695994648.3461816, 
-0.190962553024292, 0.3435373306274414, 0.3367484727386901, 1695994648.3558164, 
0.1313655972480774, 0.221965491771698, 0.3614652676340941, 1695994648.3648381, 
0.15646660327911377, 0.3123399019241333, 0.2447496441307952, 1695994648.378189, 
0.2997775077819824, -0.4444844126701355, 0.4979340936142783, 1695994648.384751, 
0.02046835422515869, 0.04836338758468628, 0.3425130674918469, 1695994648.3947704, 
0.32810717821121216, 0.21242862939834595, 0.35090877997060177, 1695994648.404754, 
-0.287861704826355, 0.0009583830833435059, 0.31933011942992545, 1695994648.4156845, 
-0.3117862939834595, 0.23027360439300537, 0.289247146418514, 1695994648.4279366, 
-0.7268353700637817, -0.47175681591033936, 0.4548307103299628, 1695994648.4356754, 
-0.1568118929862976, 0.45402252674102783, 0.35094744515462223, 1695994648.4457169, 
0.5986350774765015, 0.46558910608291626, 0.2885700229447032, 1695994648.4579968, 
0.7772614359855652, -0.5854793787002563, 0.5282947469893934, 1695994648.464774, 
0.7208151817321777, 0.30604416131973267, 0.33653166845926513, 1695994648.4756722, 
-0.13338977098464966, 0.1632416844367981, 0.3643146646816002, 1695994648.485627, 
-0.24344617128372192, 0.04057127237319946, 0.3600926920492683, 1695994648.49556, 
-0.4281289577484131, 0.19545978307724, 0.3045869767922045, 1695994648.507306, 
-0.2434847354888916, -0.23786896467208862, 0.4331104329953303, 1695994648.515535, 
-0.3226251006126404, 0.17562973499298096, 0.3554844165496236, 1695994648.5255814, 
0.21862715482711792, 0.21630007028579712, 0.28180437886536847, 1695994648.538029, 
-0.017701387405395508, 0.4926825761795044, 0.4599229523415332, 1695994648.5455709, 
-0.20035076141357422, -0.060267090797424316, 0.35400915483979883, 1695994648.5555453, 
-0.21132123470306396, -0.4996985197067261, 0.3635753320189078, 1695994648.5656223, 
-0.2960311770439148, 0.5533982515335083, 0.37769361946266716, 1695994648.575536, 
-0.01788806915283203, 0.03481680154800415, 0.32714924676702817, 1695994648.587003, 
0.3003491163253784, -0.2713441252708435, 0.44752754253871513, 1695994648.5954337, 
0.4097447991371155, 0.2118503451347351, 0.37250028379451827, 1695994648.6054432, 
-0.16676461696624756, 0.07412612438201904, 0.3628223520580937, 1695994648.6154692, 
-0.005918920040130615, 0.4606914520263672, 0.3559864903335303, 1695994648.625427, 
-0.2979923486709595, 0.05012720823287964, 0.3410182724969112, 1695994648.6354554, 
-0.1356489062309265, -0.17923802137374878, 0.3422053650954014, 1695994648.645394, 
0.29334384202957153, 0.060377418994903564, 0.34085418863134037, 1695994648.6554267, 
0.42405056953430176, -0.26645946502685547, 0.2924467669520949, 1695994648.666974, 
0.5319819450378418, 0.22963356971740723, 0.39835474133573534, 1695994648.6753128, 
-0.08113306760787964, 0.0012989044189453125, 0.32128550833144287, 1695994648.6853304, 
-0.17134499549865723, -0.18392276763916016, 0.3169291019804408, 1695994648.695365, 
-0.2527906894683838, 0.6698996424674988, 0.31593595492046134, 1695994648.7052965, 
-0.006616115570068359, 0.3825220465660095, 0.29902355565248045, 1695994648.715348, 
-0.15496540069580078, 0.07485151290893555, 0.29202237776116835, 1695994648.7252986, 
0.015241682529449463, -0.2250605821609497, 0.29166909312437134, 1695994648.7352412, 
-0.12435722351074219, -0.18335038423538208, 0.24600130441347853, 1695994648.7474604, 
-0.023038387298583984, 0.5088580846786499, 0.4031094541184017, 1695994648.755233, 
-0.05497133731842041, -0.21085959672927856, 0.32217272967234206, 1695994648.7652233, 
-0.1164974570274353, -0.2721481919288635, 0.34337203236985764, 1695994648.775202, 
0.2687116265296936, 0.4544018507003784, 0.3618436168444539, 1695994648.785185, 
0.10014772415161133, 0.04566323757171631, 0.3594161089247634, 1695994648.7953331, 
-0.026578009128570557, -0.020729243755340576, 0.37122410184017574, 1695994648.8051758, 
-0.6069050431251526, -0.15123850107192993, 0.3639875094363787, 1695994648.8151553, 
-0.267861008644104, 0.9282130599021912, 0.29766848025844783, 1695994648.8270173, 
-0.12749922275543213, 0.5286019444465637, 0.4174518966317732, 1695994648.835124, 
0.2621455788612366, -0.4399464726448059, 0.3355569001642148, 1695994648.845149, 
0.06734931468963623, 0.27099353075027466, 0.3512672057868364, 1695994648.8550932, 
-0.1534954309463501, -0.25956809520721436, 0.37185561149998225, 1695994648.8650875, 
0.7628354430198669, 0.26924246549606323, 0.37081754578604, 1695994648.8754663, 
0.07435548305511475, 0.2980805039405823, 0.3974283763071641, 1695994648.885041, 
-0.023247480392456055, -0.7589954137802124, 0.3853438804907355, 1695994648.8950202, 
-0.04288214445114136, 0.5724238753318787, 0.3156551611989154, 1695994648.9072754, 
-0.41200149059295654, 0.6143321990966797, 0.4836567199630054, 1695994648.9150078, 
-0.43335551023483276, -0.48925304412841797, 0.3793648804818971, 1695994648.9250076, 
-0.4501793384552002, -0.35799384117126465, 0.3814791016957583, 1695994648.9350014, 
0.054306745529174805, 0.29422062635421753, 0.37727243199354876, 1695994648.9449522, 
0.4972016215324402, 0.9685378670692444, 0.35363780424411023, 1695994648.9553983, 
0.4018707871437073, -0.12122035026550293, 0.3767443756613091, 1695994648.9649127, 
-0.3711068034172058, -0.41484570503234863, 0.36475326688160425, 1695994648.9749055, 
-0.6011964678764343, 0.2785418629646301, 0.311645697478897, 1695994648.9870353, 
-0.2597447633743286, -0.11694955825805664, 0.4811094759271524, 1695994648.994848, 
0.1407065987586975, 0.45507562160491943, 0.3725009120854726, 1695994649.0048873, 
0.3381171226501465, 0.0023477673530578613, 0.3754450616408943, 1695994649.014904, 
0.1623188853263855, -0.6338921785354614, 0.4189193055804889, 1695994649.0239155, 
0.1943235993385315, 0.48795950412750244, 0.3237514404089724, 1695994649.0354602, 
-0.3158365488052368, 0.7204302549362183, 0.3849509893865341, 1695994649.0448267, 
-0.27003735303878784, 0.1920967698097229, 0.3519170753292723, 1695994649.0548096, 
0.03952509164810181, -0.49696630239486694, 0.2700601758792506, 1695994649.0680468, 
0.39615505933761597, -0.18395835161209106, 0.6393878501075516, 1695994649.0737705, 
0.6756762862205505, 0.34231138229370117, 0.3292005632632963, 1695994649.0847387, 
0.13586288690567017, -0.3194543123245239, 0.34554353630425705, 1695994649.0948346, 
0.11716079711914062, 0.10954326391220093, 0.38458849114861865, 1695994649.1037626, 
-0.8255650401115417, 0.09550762176513672, 0.30299237320805983, 1695994649.1150458, 
-0.23075079917907715, 0.20650899410247803, 0.3912860916573538, 1695994649.1237514, 
0.05045294761657715, 0.6142593622207642, 0.3016035322536845, 1695994649.1347337, 
0.4406031370162964, -0.2630476951599121, 0.2655710847688899, 1695994649.147008, 
0.5013895630836487, -0.0982353687286377, 0.4257825174784825, 1695994649.1546347, 
-0.15134906768798828, 0.4563276171684265, 0.3183674968413652, 1695994649.1647336, 
-0.5897670984268188, -0.10318982601165771, 0.3315983352628882, 1695994649.1745803, 
-0.673204779624939, -0.13602596521377563, 0.32984587576882474, 1695994649.18466, 
-0.04563778638839722, -0.16427260637283325, 0.3146976541487254, 1695994649.1954877, 
-0.09702414274215698, 0.326680064201355, 0.39036156021419505, 1695994649.2046235, 
0.5972298979759216, 0.5132488012313843, 0.35897543856913566, 1695994649.214594, 
0.006511032581329346, -0.13271838426589966, 0.2852084044640833, 1695994649.2270186, 
-0.4873284697532654, 0.11158633232116699, 0.47238033597224216, 1695994649.2345037, 
-0.3949839472770691, -0.13216936588287354, 0.3486821751686322, 1695994649.244563, 
-0.09468448162078857, 0.2990145683288574, 0.3353954879601176, 1695994649.254485, 
0.2055543065071106, 0.3015674948692322, 0.31437146411274175, 1695994649.2644653, 
0.6295904517173767, -0.6883370876312256, 0.3004379570013995, 1695994649.2749875, 
0.8730705380439758, 0.24586594104766846, 0.34584678023477394, 1695994649.2844756, 
-0.1659722924232483, 0.268096387386322, 0.36323957547222985, 1695994649.293754, 
-0.0534626841545105, -0.17369306087493896, 0.25327911810626214, 1695994649.3072872, 
-0.4333617091178894, -0.017278730869293213, 0.47596350547373617, 1695994649.3144567, 
-0.6593308448791504, -0.08614486455917358, 0.3296823540236661, 1695994649.3246682, 
0.22647833824157715, 0.7749221920967102, 0.3226338356129299, 1695994649.3345492, 
0.24925696849822998, 0.4093131422996521, 0.2987412017795246, 1695994649.3445275, 
0.23770195245742798, -0.48015445470809937, 0.28802753974602, 1695994649.355096, 
-0.56524658203125, 0.40200209617614746, 0.337710013219593, 1695994649.3645332, 
-0.21785122156143188, 0.13396865129470825, 0.3285824842334994, 1695994649.3745828, 
-0.25333791971206665, 0.004587352275848389, 0.27796315128439525, 1695994649.3867733, 
0.29539114236831665, -0.6439578533172607, 0.5019643175514913, 1695994649.3937645, 
0.3721618056297302, 0.5289043188095093, 0.3667439227747186, 1695994649.403766, 
0.06320244073867798, -0.018779456615447998, 0.3296443902804187, 1695994649.4146616, 
-0.3770684599876404, -0.3323841691017151, 0.35054191937870455, 1695994649.424584, 
-0.08625835180282593, 0.08895528316497803, 0.32676582571276375, 1695994649.435234, 
-0.08404141664505005, -0.07478386163711548, 0.3669559950082113, 1695994649.444529, 
0.5924640893936157, 0.5578795671463013, 0.3412394637918403, 1695994649.4544837, 
0.7131005525588989, 0.41334640979766846, 0.27896900608119235, 1695994649.4666915, 
-0.10477697849273682, -0.361932635307312, 0.43357635194756006, 1695994649.4746056, 
-0.42487460374832153, -0.03753107786178589, 0.36368165290471705, 1695994649.4845462, 
0.14718639850616455, -0.37937259674072266, 0.3776933653326625, 1695994649.4944549, 
-0.223646879196167, 0.5191059708595276, 0.37586430233668544, 1695994649.5044575, 
-0.7233107089996338, 0.4775925874710083, 0.3648388858830107, 1695994649.514779, 
-0.2716423273086548, 0.186068594455719, 0.3866613674155391, 1695994649.524319, 
-0.17067241668701172, 0.11995285749435425, 0.3527374710765065, 1695994649.534675, 
0.27593356370925903, -0.4030468463897705, 0.2887001602852111, 1695994649.547329, 
0.4956117868423462, 0.5026280283927917, 0.5096056585458099, 1695994649.5544453, 
-0.19611704349517822, 0.3535540699958801, 0.35707338930036864, 1695994649.564348, 
-0.5564060211181641, -0.32348740100860596, 0.3473354492262688, 1695994649.5742984, 
-0.6040266156196594, 0.09503567218780518, 0.35115494645245776, 1695994649.5843081, 
-0.37656962871551514, -0.3382910490036011, 0.3299893793260004, 1695994649.5951943, 
0.21680182218551636, 0.04547518491744995, 0.39360885526420175, 1695994649.604537, 
0.4030458927154541, 0.22634881734848022, 0.37695628618027904, 1695994649.6142857, 
0.10264313220977783, 0.2591724991798401, 0.28250720472697194, 1695994649.6270032, 
-0.14475417137145996, 0.36184370517730713, 0.48849565693340874, 1695994649.634286, 
-0.05135279893875122, -0.06199288368225098, 0.34920318363175873, 1695994649.6442914, 
-0.0264662504196167, 0.36232244968414307, 0.3359553614035434, 1695994649.6546314, 
0.46166980266571045, 0.28814083337783813, 0.3576743098818873, 1695994649.6642387, 
0.7682129740715027, -0.5011051297187805, 0.3093048393351059, 1695994649.6750789, 
0.17391955852508545, -0.0005846619606018066, 0.3605788780723631, 1695994649.6842387, 
-0.26937323808670044, -0.4572140574455261, 0.32428251305042727, 1695994649.6943288, 
-0.2715293765068054, 0.08227378129959106, 0.27546283998102133, 1695994649.70628, 
-0.1926039457321167, 0.9815167784690857, 0.4035481636627453, 1695994649.7142437, 
-0.21422076225280762, -0.19901317358016968, 0.3030493327872104, 1695994649.7242553, 
0.42806875705718994, -0.23657429218292236, 0.29917239005957297, 1695994649.7342355, 
0.13236987590789795, 0.09355443716049194, 0.2974266033618607, 1695994649.7442555, 
-0.11037790775299072, 0.11211901903152466, 0.2772524377552834, 1695994649.7550654, 
-0.43034297227859497, 0.23432523012161255, 0.32477755825239196, 1695994649.7642164, 
-0.21193522214889526, -0.16983920335769653, 0.29420898242755866, 1695994649.77426, 
-0.29915666580200195, 0.20456910133361816, 0.2545383919578974, 1695994649.7862344, 
0.14617270231246948, -0.008107960224151611, 0.4007950566947135, 1695994649.7942, 
0.6701967716217041, -0.29353106021881104, 0.329356181283629, 1695994649.8042693, 
-0.4752339720726013, 0.2316455841064453, 0.3441188792283303, 1695994649.8142524, 
-0.7056084871292114, -0.2819303274154663, 0.34782675244443295, 1695994649.8243537, 
-0.06461870670318604, 0.5427666902542114, 0.31287133691341296, 1695994649.8355465, 
-0.09834063053131104, 0.7248030304908752, 0.38513628844641995, 1695994649.8442845, 
0.6200892925262451, -0.7556180357933044, 0.3242238046400929, 1695994649.8543396, 
0.7072078585624695, 0.2657673954963684, 0.28770316319464895, 1695994649.8660407, 
0.23593181371688843, 0.621516764163971, 0.40781996711810004, 1695994649.874365, 
-0.48283255100250244, 0.21867400407791138, 0.34254211316817196, 1695994649.8842397, 
-0.12683218717575073, -0.09645092487335205, 0.3389135681637307, 1695994649.8941565, 
-0.4130750894546509, -0.35466623306274414, 0.33157748619459987, 1695994649.9041696, 
